Ax,Ay,Az, Gx,Gy,Gz
0.51,0.07,10.52, -0.10,0.00,-0.01
0.50,0.03,10.60, -0.10,-0.00,-0.01
0.51,0.05,10.55, -0.10,-0.00,-0.01
0.51,0.07,10.52, -0.10,-0.00,-0.01
0.52,0.06,10.53, -0.10,0.00,-0.01
0.52,0.05,10.56, -0.10,-0.00,-0.01
0.49,0.04,10.54, -0.10,-0.00,-0.01
0.51,0.04,10.53, -0.10,-0.00,-0.01
0.48,0.06,10.50, -0.10,0.00,-0.01
0.48,0.09,10.52, -0.10,-0.00,-0.01
0.50,0.07,10.52, -0.10,-0.00,-0.01
0.51,0.06,10.56, -0.10,0.00,-0.01
0.51,0.06,10.53, -0.10,-0.00,-0.01
0.51,0.06,10.52, -0.10,-0.00,-0.01
0.50,0.06,10.50, -0.10,-0.00,-0.01
0.49,0.05,10.51, -0.10,0.00,-0.01
0.48,0.05,10.56, -0.10,0.00,-0.01
0.49,0.06,10.54, -0.10,-0.00,-0.01
0.50,0.06,10.52, -0.10,0.00,-0.01
0.51,0.06,10.53, -0.10,0.00,-0.01
0.52,0.05,10.54, -0.10,-0.00,-0.01
0.51,0.05,10.53, -0.10,-0.00,-0.01
0.51,0.06,10.53, -0.10,0.00,-0.01
0.51,0.05,10.52, -0.10,-0.00,-0.01
0.52,0.06,10.51, -0.10,-0.00,-0.01
0.51,0.06,10.51, -0.10,0.00,-0.01
0.52,0.07,10.52, -0.10,0.00,-0.01
0.51,0.07,10.55, -0.10,0.00,-0.01
0.50,0.06,10.54, -0.10,-0.00,-0.01
0.51,0.06,10.53, -0.10,-0.00,-0.01
0.50,0.08,10.51, -0.10,-0.00,-0.01
0.51,0.04,10.49, -0.10,-0.00,-0.01
0.51,0.06,10.51, -0.10,-0.00,-0.01
0.51,0.07,10.54, -0.10,-0.00,-0.01
0.51,0.07,10.51, -0.10,-0.00,-0.01
0.51,0.05,10.55, -0.10,-0.00,-0.01
0.51,0.05,10.53, -0.10,-0.00,-0.01
0.51,0.06,10.52, -0.10,-0.00,-0.01
0.50,0.07,10.52, -0.10,0.00,-0.01
0.52,0.03,10.52, -0.10,-0.00,-0.01
0.50,0.07,10.56, -0.10,0.00,-0.01
0.50,0.05,10.55, -0.10,-0.00,-0.01
0.48,0.08,10.50, -0.10,-0.00,-0.01
0.50,0.08,10.48, -0.10,-0.00,-0.01
0.49,0.06,10.50, -0.10,-0.00,-0.01
0.49,0.04,10.54, -0.10,-0.00,-0.01
0.49,0.08,10.54, -0.10,0.00,-0.01
0.50,0.06,10.51, -0.10,-0.00,-0.01
0.49,0.04,10.52, -0.10,-0.00,-0.01
0.50,0.05,10.51, -0.10,-0.00,-0.01
0.50,0.05,10.54, -0.10,0.00,-0.01
0.50,0.06,10.54, -0.10,-0.00,-0.01
0.50,0.08,10.50, -0.10,-0.00,-0.01
0.49,0.08,10.53, -0.10,-0.00,-0.01
0.50,0.06,10.53, -0.10,-0.00,-0.01
0.49,0.06,10.53, -0.10,-0.00,-0.01
0.49,0.05,10.54, -0.10,-0.00,-0.01
0.48,0.08,10.53, -0.10,-0.00,-0.01
0.51,0.03,10.53, -0.10,0.00,-0.01
0.50,0.06,10.51, -0.10,-0.00,-0.01
0.49,0.06,10.57, -0.10,-0.00,-0.01
0.49,0.07,10.48, -0.10,-0.00,-0.01
0.50,0.06,10.52, -0.10,0.00,-0.01
0.50,0.06,10.53, -0.10,-0.00,-0.01
0.51,0.04,10.49, -0.10,-0.00,-0.01
0.49,0.07,10.52, -0.10,-0.00,-0.01
0.49,0.06,10.54, -0.10,0.00,-0.01
0.51,0.06,10.54, -0.10,0.00,-0.01
0.50,0.06,10.53, -0.10,0.00,-0.01
0.50,0.03,10.54, -0.10,-0.00,-0.01
0.50,0.07,10.53, -0.10,-0.00,-0.01
0.50,0.05,10.54, -0.10,0.00,-0.01
0.51,0.07,10.51, -0.10,-0.00,-0.01
0.50,0.05,10.52, -0.10,-0.00,-0.01
0.49,0.06,10.56, -0.10,-0.00,-0.01
0.49,0.06,10.54, -0.10,-0.00,-0.01
0.48,0.06,10.52, -0.10,-0.00,-0.01
0.49,0.06,10.52, -0.10,0.00,-0.01
0.49,0.05,10.55, -0.10,-0.00,-0.01
0.49,0.06,10.53, -0.10,-0.00,-0.01
0.50,0.06,10.51, -0.10,-0.00,-0.01
0.50,0.07,10.56, -0.10,-0.00,-0.01
0.49,0.06,10.48, -0.10,-0.00,-0.01
0.49,0.06,10.53, -0.10,-0.00,-0.01
0.49,0.05,10.53, -0.10,-0.00,-0.00
0.49,0.07,10.53, -0.10,-0.00,-0.01
0.49,0.06,10.54, -0.10,-0.00,-0.01
0.50,0.07,10.53, -0.10,0.00,-0.01
0.49,0.06,10.52, -0.10,-0.00,-0.01
0.48,0.06,10.52, -0.10,-0.00,-0.01
0.49,0.06,10.52, -0.10,-0.00,-0.01
0.50,0.05,10.51, -0.10,-0.00,-0.01
0.49,0.06,10.55, -0.10,-0.00,-0.01
0.50,0.07,10.53, -0.10,0.00,-0.01
0.52,0.08,10.52, -0.10,0.00,-0.01
0.51,0.06,10.54, -0.10,0.00,-0.01
0.51,0.06,10.55, -0.10,0.00,-0.01
0.51,0.06,10.55, -0.10,-0.00,-0.01
0.51,0.06,10.53, -0.10,-0.00,-0.01
0.50,0.05,10.51, -0.10,-0.00,-0.01
0.51,0.08,10.53, -0.10,0.00,-0.01
0.50,0.05,10.54, -0.10,0.00,-0.01
0.51,0.07,10.56, -0.10,0.00,-0.01
0.51,0.06,10.53, -0.10,-0.00,-0.01
0.51,0.06,10.52, -0.10,0.00,-0.01
0.50,0.05,10.55, -0.10,0.00,-0.01
0.50,0.06,10.54, -0.10,-0.00,-0.01
0.48,0.06,10.53, -0.10,-0.00,-0.01
0.50,0.09,10.54, -0.10,-0.00,-0.01
0.50,0.06,10.53, -0.10,-0.00,-0.01
0.51,0.07,10.51, -0.10,0.00,-0.01
0.49,0.07,10.57, -0.10,0.00,-0.01
0.49,0.06,10.54, -0.10,0.00,-0.01
0.49,0.07,10.54, -0.10,0.00,-0.01
0.51,0.05,10.54, -0.10,0.00,-0.01
0.48,0.04,10.58, -0.10,-0.00,-0.01
0.51,0.05,10.52, -0.10,-0.00,-0.01
0.50,0.04,10.50, -0.10,-0.00,-0.01
0.49,0.06,10.55, -0.10,0.00,-0.01
0.48,0.06,10.58, -0.10,0.00,-0.01
0.50,0.06,10.52, -0.10,0.00,-0.01
0.51,0.06,10.52, -0.10,-0.00,-0.01
0.50,0.07,10.54, -0.10,-0.00,-0.01
0.49,0.07,10.54, -0.10,-0.00,-0.01
0.51,0.06,10.48, -0.10,-0.00,-0.01
0.50,0.05,10.49, -0.10,-0.00,-0.01
0.49,0.06,10.53, -0.10,-0.00,-0.01
0.51,0.07,10.54, -0.10,-0.00,-0.01
0.51,0.05,10.55, -0.10,-0.00,-0.01
0.49,0.09,10.51, -0.10,0.00,-0.01
0.50,0.10,10.49, -0.10,0.00,-0.01
0.49,0.07,10.50, -0.10,0.00,-0.01
0.50,0.04,10.53, -0.10,-0.00,-0.01
0.49,0.06,10.56, -0.10,0.00,-0.01
0.51,0.04,10.62, -0.10,-0.00,-0.01
0.49,0.09,10.44, -0.10,-0.01,-0.01
0.51,0.06,10.47, -0.10,-0.00,-0.01
0.48,0.06,10.52, -0.10,0.00,-0.01
0.50,0.06,10.53, -0.10,0.00,-0.01
0.51,0.03,10.50, -0.10,-0.00,-0.01
0.50,0.06,10.53, -0.10,0.00,-0.01
0.48,0.07,10.61, -0.10,-0.00,-0.01
0.49,0.03,10.59, -0.10,-0.00,-0.01
0.50,0.07,10.48, -0.10,-0.00,-0.01
0.50,0.07,10.52, -0.10,0.00,-0.01
0.50,0.05,10.55, -0.10,0.00,-0.01
0.49,0.04,10.53, -0.10,0.00,-0.01
0.49,0.08,10.56, -0.10,0.00,-0.01
0.50,0.07,10.57, -0.10,-0.00,-0.01
0.51,0.06,10.49, -0.10,-0.00,-0.01
0.50,0.06,10.50, -0.10,-0.00,-0.01
0.50,0.05,10.56, -0.10,0.00,-0.01
0.51,0.05,10.55, -0.10,-0.00,-0.01
0.50,0.08,10.51, -0.10,-0.00,-0.01
0.50,0.08,10.52, -0.10,0.00,-0.01
0.50,0.05,10.54, -0.10,0.00,-0.01
0.51,0.04,10.56, -0.10,-0.00,-0.01
0.49,0.06,10.52, -0.10,-0.00,-0.01
0.51,0.05,10.51, -0.10,0.00,-0.01
0.51,0.05,10.55, -0.10,0.00,-0.01
0.51,0.05,10.58, -0.10,-0.00,-0.01
0.50,0.06,10.52, -0.10,-0.00,-0.01
0.50,0.06,10.54, -0.10,0.00,-0.01
0.51,0.06,10.50, -0.10,-0.00,-0.01
0.52,0.05,10.51, -0.10,-0.00,-0.01
0.50,0.05,10.48, -0.10,0.00,-0.01
0.49,0.08,10.56, -0.10,0.00,-0.01
0.49,0.06,10.52, -0.10,-0.00,-0.01
0.48,0.07,10.55, -0.10,-0.00,-0.01
0.49,0.06,10.54, -0.10,-0.00,-0.01
0.50,0.05,10.52, -0.10,-0.00,-0.01
0.49,0.09,10.55, -0.10,-0.00,-0.01
0.51,0.06,10.48, -0.10,-0.00,-0.01
0.49,0.04,10.50, -0.10,0.00,-0.01
0.49,0.08,10.57, -0.10,-0.00,-0.01
0.49,0.06,10.52, -0.10,-0.00,-0.01
0.51,0.05,10.51, -0.10,-0.00,-0.01
0.51,0.08,10.51, -0.10,-0.00,-0.01
0.50,0.07,10.53, -0.10,0.00,-0.01
0.50,0.05,10.52, -0.10,0.00,-0.01
0.51,0.07,10.55, -0.10,-0.00,-0.01
0.50,0.05,10.55, -0.10,-0.00,-0.01
0.50,0.05,10.54, -0.10,-0.00,-0.01
0.51,0.06,10.53, -0.10,-0.00,-0.01
0.48,0.05,10.52, -0.10,-0.00,-0.01
0.48,0.05,10.53, -0.10,-0.00,-0.01
0.50,0.05,10.54, -0.10,0.00,-0.01
0.50,0.04,10.55, -0.10,-0.00,-0.01
0.50,0.06,10.55, -0.10,-0.00,-0.01
0.48,0.05,10.51, -0.10,-0.00,-0.01
0.50,0.05,10.50, -0.10,-0.00,-0.01
0.48,0.06,10.51, -0.10,-0.00,-0.01
0.51,0.07,10.54, -0.10,-0.00,-0.01
0.50,0.06,10.53, -0.10,0.00,-0.01
0.51,0.07,10.53, -0.10,-0.00,-0.01
0.51,0.06,10.52, -0.10,-0.00,-0.01
0.50,0.05,10.52, -0.10,-0.00,-0.01
0.49,0.06,10.53, -0.10,-0.00,-0.01
0.48,0.06,10.49, -0.10,-0.00,-0.01
0.49,0.04,10.49, -0.10,-0.00,-0.01
0.51,0.07,10.50, -0.10,-0.00,-0.01
0.49,0.07,10.56, -0.10,0.00,-0.01
0.48,0.06,10.58, -0.10,-0.00,-0.01
0.51,0.04,10.51, -0.10,-0.00,-0.01
0.50,0.08,10.51, -0.10,0.00,-0.01
0.49,0.08,10.56, -0.10,0.00,-0.01
0.50,0.06,10.55, -0.10,-0.00,-0.01
0.49,0.08,10.53, -0.10,-0.00,-0.01
0.51,0.08,10.52, -0.10,-0.00,-0.01
0.50,0.05,10.54, -0.10,0.00,-0.01
0.49,0.06,10.55, -0.10,-0.00,-0.01
0.49,0.06,10.54, -0.10,-0.00,-0.01
0.49,0.06,10.54, -0.10,-0.00,-0.01
0.49,0.06,10.54, -0.10,-0.00,-0.01
0.49,0.06,10.56, -0.10,-0.00,-0.01
0.47,0.05,10.51, -0.10,-0.00,-0.01
0.51,0.06,10.52, -0.10,-0.00,-0.01
0.50,0.05,10.52, -0.10,-0.00,-0.01
0.51,0.05,10.53, -0.10,-0.00,-0.01
0.48,0.05,10.51, -0.10,-0.00,-0.01
0.49,0.07,10.50, -0.10,-0.00,-0.01
0.48,0.05,10.51, -0.10,-0.00,-0.01
0.49,0.06,10.56, -0.10,-0.00,-0.01
0.47,0.07,10.53, -0.10,-0.00,-0.01
0.49,0.07,10.52, -0.10,-0.00,-0.01
0.50,0.05,10.52, -0.10,-0.00,-0.01
0.50,0.06,10.47, -0.10,0.00,-0.01
0.51,0.05,10.51, -0.10,0.00,-0.01
0.49,0.04,10.60, -0.10,-0.00,-0.01
0.51,0.05,10.51, -0.10,-0.00,-0.01
0.50,0.04,10.58, -0.10,-0.00,-0.01
0.49,0.08,10.51, -0.10,-0.00,-0.01
0.51,0.05,10.44, -0.10,-0.00,-0.01
0.50,0.07,10.51, -0.10,0.00,-0.01
0.50,0.07,10.57, -0.10,-0.00,-0.01
0.51,0.05,10.52, -0.10,-0.00,-0.01
0.49,0.07,10.50, -0.10,-0.00,-0.01
0.50,0.05,10.55, -0.10,-0.00,-0.01
0.46,0.05,10.53, -0.10,-0.00,-0.01
0.48,0.09,10.51, -0.10,-0.00,-0.01
0.51,0.07,10.50, -0.10,0.00,-0.01
0.51,0.06,10.52, -0.10,0.00,-0.01
0.50,0.07,10.55, -0.10,-0.00,-0.01
0.48,0.06,10.50, -0.10,-0.00,-0.01
0.48,0.06,10.52, -0.10,0.00,-0.01
0.50,0.07,10.53, -0.10,-0.00,-0.01
0.51,0.06,10.51, -0.10,0.00,-0.01
0.48,0.05,10.52, -0.10,-0.00,-0.01
0.51,0.07,10.54, -0.10,-0.00,-0.01
0.51,0.06,10.51, -0.10,-0.00,-0.01
0.50,0.07,10.53, -0.10,0.00,-0.01
0.50,0.06,10.52, -0.10,-0.00,-0.01
0.49,0.04,10.50, -0.10,-0.00,-0.01
0.51,0.05,10.53, -0.10,-0.00,-0.01
0.51,0.05,10.54, -0.10,-0.00,-0.01
0.51,0.06,10.49, -0.10,-0.00,-0.01
0.50,0.05,10.53, -0.10,-0.00,-0.01
0.48,0.05,10.57, -0.10,-0.00,-0.01
0.48,0.07,10.52, -0.10,-0.00,-0.01
0.50,0.06,10.54, -0.10,-0.00,-0.01
0.51,0.06,10.56, -0.10,-0.00,-0.01
0.50,0.06,10.53, -0.10,-0.00,-0.01
0.50,0.06,10.51, -0.10,-0.00,-0.01
0.48,0.06,10.54, -0.10,-0.00,-0.01
0.48,0.07,10.51, -0.10,-0.00,-0.01
0.50,0.05,10.50, -0.10,-0.00,-0.01
0.49,0.04,10.58, -0.10,-0.00,-0.01
0.51,0.09,10.53, -0.10,-0.00,-0.01
0.51,0.03,10.50, -0.10,-0.00,-0.01
0.51,0.06,10.52, -0.10,-0.00,-0.01
0.46,0.07,10.53, -0.10,0.00,-0.01
0.50,0.05,10.52, -0.10,-0.00,-0.01
0.50,0.03,10.56, -0.10,-0.00,-0.01
0.49,0.07,10.54, -0.10,-0.00,-0.01
0.52,0.06,10.48, -0.10,-0.00,-0.01
0.52,0.05,10.56, -0.10,0.00,-0.01
0.47,0.05,10.60, -0.10,-0.00,-0.01
0.50,0.05,10.51, -0.10,-0.00,-0.01
0.49,0.06,10.47, -0.10,0.00,-0.01
0.49,0.07,10.54, -0.10,0.00,-0.01
0.49,0.06,10.51, -0.10,0.00,-0.01
0.48,0.07,10.48, -0.10,0.00,-0.01
0.49,0.07,10.54, -0.10,0.00,-0.01
0.51,0.06,10.56, -0.10,-0.00,-0.01
0.50,0.06,10.47, -0.10,-0.00,-0.01
0.52,0.06,10.52, -0.10,-0.00,-0.01
0.50,0.05,10.53, -0.10,0.00,-0.01
0.49,0.08,10.52, -0.10,-0.00,-0.01
0.49,0.06,10.55, -0.10,-0.00,-0.01
0.51,0.05,10.55, -0.10,-0.00,-0.01
0.49,0.05,10.53, -0.10,-0.00,-0.01
0.50,0.03,10.56, -0.10,-0.00,-0.01
0.49,0.06,10.51, -0.10,-0.00,-0.01
0.50,0.06,10.51, -0.10,-0.00,-0.01
0.49,0.05,10.52, -0.10,-0.00,-0.01
0.52,0.06,10.54, -0.10,0.00,-0.01
0.49,0.06,10.53, -0.10,-0.00,-0.01
0.51,0.07,10.50, -0.10,-0.00,-0.01
0.48,0.06,10.55, -0.10,0.00,-0.01
0.49,0.06,10.51, -0.10,-0.00,-0.01
0.49,0.04,10.51, -0.10,0.00,-0.01
0.49,0.07,10.56, -0.10,0.00,-0.01
0.49,0.06,10.54, -0.10,-0.00,-0.01
0.51,0.04,10.54, -0.10,0.00,-0.01
0.49,0.05,10.53, -0.10,-0.00,-0.01
0.49,0.07,10.52, -0.10,-0.00,-0.01
0.50,0.05,10.52, -0.10,0.00,-0.01
0.49,0.05,10.53, -0.10,-0.00,-0.01
0.50,0.03,10.51, -0.10,0.00,-0.01
0.50,0.04,10.54, -0.10,0.00,-0.01
0.50,0.06,10.54, -0.10,-0.00,-0.01
0.49,0.06,10.51, -0.10,-0.00,-0.01
0.49,0.06,10.52, -0.10,-0.00,-0.01
0.50,0.07,10.51, -0.10,-0.00,-0.01
0.49,0.06,10.54, -0.10,-0.00,-0.01
0.50,0.07,10.52, -0.10,-0.00,-0.01
0.50,0.08,10.55, -0.10,-0.00,-0.01
0.49,0.07,10.55, -0.10,-0.00,-0.01
0.49,0.05,10.52, -0.10,-0.00,-0.01
0.49,0.06,10.55, -0.10,0.00,-0.01
0.51,0.07,10.56, -0.10,0.00,-0.01
0.50,0.06,10.54, -0.10,-0.00,-0.01
0.49,0.07,10.49, -0.10,-0.00,-0.01
0.51,0.07,10.50, -0.10,-0.00,-0.01
0.51,0.05,10.53, -0.10,-0.00,-0.01
0.49,0.06,10.54, -0.10,-0.00,-0.01
0.50,0.05,10.53, -0.10,-0.00,-0.01
0.49,0.05,10.52, -0.10,-0.00,-0.01
0.48,0.05,10.53, -0.10,-0.00,-0.01
0.50,0.04,10.55, -0.10,-0.00,-0.01
0.50,0.04,10.55, -0.10,-0.00,-0.01
0.51,0.06,10.54, -0.10,-0.00,-0.01
0.49,0.06,10.54, -0.10,0.00,-0.01
0.49,0.05,10.53, -0.10,-0.00,-0.01
0.51,0.07,10.52, -0.10,-0.00,-0.01
0.51,0.06,10.49, -0.10,-0.00,-0.01
0.49,0.05,10.52, -0.10,-0.00,-0.01
0.49,0.07,10.55, -0.10,-0.00,-0.01
0.48,0.05,10.51, -0.10,-0.00,-0.01
0.50,0.07,10.52, -0.10,-0.00,-0.01
0.49,0.06,10.50, -0.10,-0.00,-0.01
0.48,0.05,10.52, -0.10,0.00,-0.01
0.50,0.06,10.55, -0.10,0.00,-0.01
0.50,0.06,10.54, -0.10,-0.00,-0.01
0.51,0.06,10.53, -0.10,-0.00,-0.01
0.49,0.04,10.63, -0.10,-0.00,-0.01
0.51,0.06,10.46, -0.10,-0.01,-0.01
0.51,0.05,10.43, -0.10,-0.00,-0.01
0.50,0.06,10.56, -0.10,0.00,-0.01
0.48,0.07,10.58, -0.10,-0.00,-0.01
0.51,0.05,10.51, -0.10,-0.00,-0.00
0.49,0.07,10.54, -0.10,-0.00,-0.01
0.50,0.07,10.53, -0.10,-0.00,-0.01
0.48,0.06,10.49, -0.10,-0.00,-0.01
0.48,0.06,10.49, -0.10,0.00,-0.01
0.49,0.05,10.58, -0.10,0.00,-0.01
0.49,0.06,10.58, -0.10,-0.00,-0.01
0.50,0.08,10.47, -0.10,-0.00,-0.01
0.50,0.06,10.52, -0.10,0.00,-0.01
0.51,0.05,10.57, -0.10,0.00,-0.01
0.51,0.06,10.54, -0.10,-0.00,-0.01
0.51,0.06,10.51, -0.10,-0.00,-0.01
0.49,0.06,10.54, -0.10,0.00,-0.01
0.49,0.05,10.55, -0.10,-0.00,-0.01
0.50,0.03,10.53, -0.10,-0.00,-0.01
0.48,0.05,10.49, -0.10,-0.00,-0.01
0.51,0.07,10.54, -0.10,0.00,-0.01
0.49,0.08,10.51, -0.10,-0.00,-0.01
0.50,0.05,10.55, -0.10,-0.00,-0.01
0.49,0.05,10.54, -0.10,-0.00,-0.01
0.50,0.06,10.52, -0.10,-0.00,-0.01
0.50,0.05,10.53, -0.10,-0.00,-0.01
0.50,0.04,10.53, -0.10,-0.00,-0.01
0.50,0.06,10.54, -0.10,-0.00,-0.01
0.50,0.08,10.50, -0.10,-0.00,-0.01
0.50,0.07,10.54, -0.10,-0.00,-0.01
0.50,0.06,10.53, -0.10,0.00,-0.01
0.49,0.07,10.52, -0.10,-0.00,-0.01
0.50,0.04,10.56, -0.10,-0.00,-0.01
0.49,0.06,10.53, -0.10,-0.00,-0.01
0.50,0.04,10.50, -0.10,-0.00,-0.01
0.50,0.03,10.54, -0.10,0.00,-0.01
0.48,0.05,10.54, -0.10,0.00,-0.01
0.48,0.04,10.55, -0.10,-0.00,-0.01
0.50,0.06,10.50, -0.10,-0.00,-0.01
0.50,0.06,10.49, -0.10,0.00,-0.01
0.50,0.07,10.51, -0.10,0.00,-0.01
0.50,0.06,10.55, -0.10,0.00,-0.01
0.51,0.06,10.52, -0.10,0.00,-0.01
0.50,0.08,10.52, -0.10,-0.00,-0.01
0.51,0.07,10.56, -0.10,-0.00,-0.01
0.49,0.06,10.52, -0.10,-0.00,-0.01
0.50,0.05,10.47, -0.10,-0.00,-0.01
0.50,0.04,10.50, -0.10,0.00,-0.01
0.50,0.03,10.57, -0.10,0.00,-0.01
0.50,0.05,10.50, -0.10,0.00,-0.01
0.49,0.04,10.54, -0.10,0.00,-0.01
0.50,0.06,10.54, -0.10,-0.00,-0.01
0.51,0.06,10.52, -0.10,-0.00,-0.01
0.47,0.05,10.52, -0.10,0.00,-0.01
0.49,0.05,10.52, -0.10,-0.00,-0.01
0.50,0.04,10.52, -0.10,-0.00,-0.01
0.50,0.06,10.51, -0.10,0.00,-0.01
0.50,0.04,10.50, -0.10,-0.00,-0.01
0.48,0.04,10.54, -0.10,-0.00,-0.01
0.48,0.06,10.49, -0.10,-0.00,-0.01
0.50,0.06,10.49, -0.10,0.00,-0.01
0.51,0.06,10.56, -0.10,0.00,-0.01
0.50,0.07,10.55, -0.10,0.00,-0.01
0.49,0.05,10.55, -0.10,-0.00,-0.01
0.49,0.06,10.52, -0.10,0.00,-0.01
0.49,0.07,10.52, -0.10,0.00,-0.01
0.49,0.07,10.53, -0.10,-0.00,-0.01
0.49,0.06,10.57, -0.10,-0.00,-0.01
0.49,0.05,10.53, -0.10,-0.00,-0.01
0.52,0.07,10.50, -0.10,-0.00,-0.01
0.50,0.07,10.51, -0.10,0.00,-0.01
0.51,0.07,10.51, -0.10,0.00,-0.01
0.51,0.05,10.53, -0.10,0.00,-0.01
0.49,0.05,10.54, -0.10,-0.00,-0.01
0.51,0.05,10.51, -0.10,-0.00,-0.01
0.49,0.05,10.52, -0.10,-0.00,-0.01
0.49,0.06,10.54, -0.10,-0.00,-0.01
0.49,0.07,10.48, -0.10,-0.00,-0.01
0.51,0.06,10.49, -0.10,-0.00,-0.01
0.51,0.06,10.54, -0.10,-0.00,-0.01
0.52,0.07,10.52, -0.10,-0.00,-0.01
0.47,0.06,10.55, -0.10,0.00,-0.01
0.49,0.06,10.54, -0.10,-0.00,-0.01
0.50,0.06,10.50, -0.10,-0.00,-0.01
0.50,0.06,10.53, -0.10,-0.00,-0.01
0.49,0.05,10.52, -0.10,-0.00,-0.01
0.49,0.05,10.51, -0.10,-0.00,-0.01
0.49,0.04,10.52, -0.10,0.00,-0.01
0.51,0.06,10.54, -0.10,0.00,-0.01
0.49,0.05,10.52, -0.10,-0.00,-0.01
0.51,0.06,10.52, -0.10,-0.00,-0.01
0.50,0.06,10.54, -0.10,-0.00,-0.01
0.51,0.08,10.52, -0.10,-0.00,-0.01
0.50,0.05,10.51, -0.10,-0.00,-0.01
0.50,0.08,10.52, -0.10,-0.00,-0.01
0.50,0.07,10.51, -0.10,0.00,-0.01
0.50,0.04,10.55, -0.10,-0.00,-0.01
0.51,0.06,10.53, -0.10,-0.00,-0.01
0.50,0.06,10.48, -0.10,-0.00,-0.01
0.50,0.06,10.49, -0.10,-0.00,-0.01
0.49,0.06,10.53, -0.10,0.00,-0.01
0.49,0.06,10.51, -0.10,0.00,-0.01
0.50,0.04,10.54, -0.10,0.00,-0.01
0.49,0.07,10.53, -0.10,0.00,-0.01
0.47,0.04,10.57, -0.10,-0.00,-0.01
0.51,0.05,10.60, -0.10,-0.00,-0.01
0.51,0.09,10.44, -0.10,-0.00,-0.01
0.51,0.05,10.48, -0.10,0.00,-0.01
0.49,0.07,10.58, -0.10,-0.00,-0.01
0.48,0.07,10.55, -0.10,-0.00,-0.01
0.49,0.04,10.49, -0.10,-0.00,-0.01
0.48,0.06,10.53, -0.10,-0.00,-0.01
0.49,0.07,10.52, -0.10,-0.00,-0.01
0.51,0.06,10.49, -0.10,-0.00,-0.01
0.51,0.05,10.48, -0.10,0.00,-0.01
0.51,0.07,10.47, -0.10,0.00,-0.01
0.51,0.03,10.54, -0.10,0.00,-0.01
0.49,0.06,10.56, -0.10,-0.00,-0.01
0.50,0.06,10.52, -0.10,-0.00,-0.01
0.49,0.05,10.53, -0.10,0.00,-0.01
0.49,0.06,10.53, -0.10,-0.00,-0.01
0.50,0.05,10.50, -0.10,-0.00,-0.01
0.50,0.06,10.48, -0.10,-0.00,-0.01
0.48,0.07,10.51, -0.10,0.00,-0.01
0.50,0.05,10.53, -0.10,-0.00,-0.01
0.51,0.04,10.55, -0.10,-0.00,-0.01
0.51,0.06,10.56, -0.10,-0.00,-0.01
0.50,0.06,10.55, -0.10,-0.00,-0.01
0.50,0.06,10.53, -0.10,-0.00,-0.01
0.51,0.06,10.52, -0.10,0.00,-0.01
0.49,0.05,10.53, -0.10,0.00,-0.01
0.49,0.06,10.55, -0.10,-0.00,-0.01
0.50,0.05,10.55, -0.10,-0.00,-0.01
0.49,0.05,10.54, -0.10,-0.00,-0.01
0.49,0.06,10.53, -0.10,-0.00,-0.01
0.50,0.05,10.52, -0.10,-0.00,-0.01
0.50,0.06,10.50, -0.10,0.00,-0.01
0.50,0.06,10.54, -0.10,-0.00,-0.01
0.49,0.05,10.54, -0.10,-0.00,-0.01
0.51,0.05,10.51, -0.10,-0.00,-0.01
0.50,0.05,10.53, -0.10,-0.00,-0.01
0.50,0.07,10.47, -0.10,0.00,-0.01
0.49,0.07,10.51, -0.10,0.00,-0.01
0.48,0.04,10.56, -0.10,-0.00,-0.01
0.50,0.04,10.55, -0.10,-0.00,-0.01
0.51,0.05,10.50, -0.10,-0.00,-0.01
0.51,0.07,10.54, -0.10,-0.00,-0.01
0.52,0.05,10.52, -0.10,-0.00,-0.01
0.50,0.06,10.49, -0.10,-0.00,-0.01
0.50,0.06,10.52, -0.10,0.00,-0.01
0.50,0.06,10.56, -0.10,0.00,-0.01
0.50,0.04,10.55, -0.10,0.00,-0.01
0.51,0.06,10.53, -0.10,-0.00,-0.01
0.50,0.06,10.52, -0.10,0.00,-0.01
0.49,0.05,10.54, -0.10,0.00,-0.01
0.48,0.07,10.55, -0.10,-0.00,-0.01
0.48,0.07,10.52, -0.10,-0.00,-0.01
0.49,0.06,10.51, -0.10,0.00,-0.01
0.50,0.06,10.53, -0.10,-0.00,-0.01
0.49,0.05,10.53, -0.10,-0.00,-0.01
0.50,0.04,10.55, -0.10,0.00,-0.01
0.49,0.06,10.52, -0.10,0.00,-0.01
0.48,0.06,10.53, -0.10,-0.00,-0.01
0.51,0.07,10.51, -0.10,-0.00,-0.01
0.50,0.06,10.52, -0.10,-0.00,-0.01
0.50,0.04,10.55, -0.10,-0.00,-0.01
0.50,0.07,10.53, -0.10,-0.00,-0.01
0.50,0.08,10.51, -0.10,0.00,-0.01
0.50,0.05,10.52, -0.10,0.00,-0.01
0.49,0.04,10.54, -0.10,0.00,-0.01
0.50,0.05,10.55, -0.10,-0.00,-0.01
0.49,0.06,10.55, -0.10,-0.00,-0.01
0.49,0.06,10.50, -0.10,-0.00,-0.01
0.50,0.05,10.55, -0.10,-0.00,-0.01
0.49,0.06,10.54, -0.10,-0.00,-0.01
0.49,0.06,10.47, -0.10,-0.00,-0.01
0.48,0.07,10.51, -0.10,0.00,-0.01
0.51,0.07,10.53, -0.10,-0.00,-0.01
0.50,0.06,10.52, -0.10,0.00,-0.01
0.49,0.05,10.50, -0.10,0.00,-0.01
0.48,0.05,10.54, -0.10,-0.00,-0.01
0.51,0.07,10.52, -0.10,-0.00,-0.01
0.49,0.07,10.50, -0.10,0.00,-0.01
0.49,0.08,10.50, -0.10,0.00,-0.01
0.48,0.05,10.56, -0.10,0.00,-0.01
0.47,0.03,10.60, -0.10,-0.00,-0.01
0.49,0.07,10.53, -0.10,-0.00,-0.01
0.50,0.07,10.50, -0.10,-0.00,-0.01
0.50,0.07,10.55, -0.10,-0.00,-0.01
0.50,0.06,10.52, -0.10,-0.00,-0.01
0.50,0.06,10.52, -0.10,-0.00,-0.01
0.48,0.07,10.53, -0.10,0.00,-0.01
0.50,0.06,10.54, -0.10,-0.00,-0.01
0.51,0.04,10.52, -0.10,-0.00,-0.01
0.50,0.05,10.51, -0.10,0.00,-0.01
0.50,0.04,10.53, -0.10,0.00,-0.01
0.51,0.05,10.54, -0.10,-0.00,-0.01
0.51,0.07,10.51, -0.10,0.00,-0.01
0.50,0.03,10.55, -0.10,0.00,-0.01
0.50,0.07,10.57, -0.10,-0.00,-0.01
0.50,0.08,10.54, -0.10,0.00,-0.01
0.50,0.07,10.55, -0.10,0.00,-0.01
0.50,0.07,10.58, -0.10,-0.00,-0.01
0.50,0.06,10.52, -0.10,-0.00,-0.01
0.50,0.07,10.54, -0.10,-0.00,-0.01
0.48,0.06,10.57, -0.10,-0.00,-0.01
0.49,0.04,10.64, -0.10,-0.00,-0.01
0.51,0.08,10.48, -0.10,-0.00,-0.01
0.51,0.05,10.46, -0.10,-0.00,-0.01
0.48,0.05,10.56, -0.10,-0.00,-0.01
0.49,0.06,10.56, -0.10,-0.00,-0.01
0.52,0.05,10.50, -0.10,0.00,-0.01
0.49,0.07,10.54, -0.10,0.00,-0.01
0.50,0.07,10.52, -0.10,0.00,-0.01
0.51,0.06,10.52, -0.10,-0.00,-0.01
0.49,0.07,10.54, -0.10,0.00,-0.01
0.47,0.08,10.52, -0.10,-0.00,-0.01
0.48,0.06,10.52, -0.10,-0.00,-0.01
0.49,0.07,10.50, -0.10,-0.00,-0.01
0.50,0.06,10.52, -0.10,-0.00,-0.01
0.51,0.04,10.51, -0.10,-0.00,-0.01
0.50,0.07,10.53, -0.10,0.00,-0.01
0.50,0.06,10.54, -0.10,0.00,-0.01
0.51,0.06,10.53, -0.10,-0.00,-0.01
0.49,0.08,10.50, -0.10,-0.00,-0.01
0.50,0.08,10.51, -0.10,-0.00,-0.01
0.50,0.05,10.52, -0.10,-0.00,-0.01
0.51,0.04,10.52, -0.10,-0.00,-0.01
0.47,0.06,10.54, -0.10,-0.00,-0.01
0.50,0.07,10.53, -0.10,-0.00,-0.01
0.49,0.06,10.53, -0.10,-0.00,-0.01
0.51,0.06,10.54, -0.10,-0.00,-0.01
0.51,0.06,10.53, -0.10,-0.00,-0.01
0.51,0.06,10.51, -0.10,-0.00,-0.01
0.51,0.04,10.51, -0.10,0.00,-0.01
0.50,0.05,10.54, -0.10,-0.00,-0.01
0.50,0.04,10.53, -0.10,-0.00,-0.01
0.50,0.03,10.55, -0.10,-0.00,-0.01
0.49,0.04,10.52, -0.10,-0.00,-0.01
0.49,0.06,10.52, -0.10,0.00,-0.01
0.50,0.06,10.52, -0.10,0.00,-0.01
0.48,0.03,10.52, -0.10,-0.00,-0.01
0.49,0.06,10.52, -0.10,-0.00,-0.01
0.51,0.08,10.54, -0.10,-0.00,-0.01
0.50,0.07,10.52, -0.10,-0.00,-0.01
0.49,0.06,10.50, -0.10,-0.00,-0.01
0.51,0.06,10.52, -0.10,0.00,-0.01
0.51,0.07,10.57, -0.10,-0.00,-0.01
0.51,0.06,10.51, -0.10,-0.00,-0.01
0.51,0.07,10.53, -0.10,-0.00,-0.01
0.50,0.05,10.56, -0.10,-0.00,-0.01
0.49,0.05,10.53, -0.10,-0.00,-0.01
0.50,0.06,10.48, -0.10,-0.00,-0.01
0.49,0.06,10.52, -0.10,0.00,-0.01
0.49,0.08,10.55, -0.10,-0.00,-0.01
0.51,0.07,10.53, -0.10,-0.00,-0.01
0.50,0.07,10.55, -0.10,-0.00,-0.01
0.50,0.08,10.56, -0.10,-0.00,-0.01
0.50,0.07,10.52, -0.10,-0.00,-0.01
0.50,0.06,10.51, -0.10,-0.00,-0.01
0.48,0.05,10.52, -0.10,-0.00,-0.01
0.49,0.05,10.52, -0.10,-0.00,-0.01
0.50,0.06,10.54, -0.10,-0.00,-0.01
0.49,0.07,10.56, -0.10,-0.00,-0.01
0.50,0.06,10.54, -0.10,-0.00,-0.01
0.51,0.06,10.50, -0.10,-0.00,-0.01
0.51,0.07,10.52, -0.10,-0.00,-0.01
0.49,0.06,10.52, -0.10,-0.00,-0.01
0.49,0.07,10.52, -0.10,-0.00,-0.01
0.51,0.05,10.53, -0.10,-0.00,-0.01
0.49,0.06,10.54, -0.10,-0.00,-0.01
0.48,0.06,10.52, -0.10,-0.00,-0.01
0.52,0.05,10.53, -0.10,0.00,-0.01
0.50,0.05,10.52, -0.10,-0.00,-0.01
0.49,0.04,10.55, -0.10,-0.00,-0.01
0.48,0.04,10.50, -0.10,-0.00,-0.01
0.51,0.04,10.52, -0.10,-0.00,-0.01
0.50,0.07,10.53, -0.10,-0.00,-0.01
0.48,0.07,10.51, -0.10,-0.00,-0.01
0.49,0.05,10.52, -0.10,-0.00,-0.01
0.49,0.05,10.51, -0.10,-0.00,-0.01
0.51,0.06,10.51, -0.10,-0.00,-0.01
0.52,0.06,10.54, -0.10,0.00,-0.01
0.51,0.07,10.55, -0.10,0.00,-0.01
0.50,0.06,10.52, -0.10,-0.00,-0.01
0.50,0.05,10.52, -0.10,-0.00,-0.01
0.50,0.06,10.51, -0.10,-0.00,-0.01
0.50,0.06,10.53, -0.10,-0.00,-0.01
0.50,0.06,10.51, -0.10,-0.00,-0.01
0.49,0.05,10.52, -0.10,-0.00,-0.01
0.52,0.05,10.54, -0.10,0.00,-0.01
0.52,0.06,10.54, -0.10,-0.00,-0.01
0.50,0.06,10.53, -0.10,-0.00,-0.01
0.50,0.07,10.54, -0.10,-0.00,-0.01
0.50,0.06,10.52, -0.10,-0.00,-0.01
0.50,0.06,10.51, -0.10,-0.00,-0.01
0.51,0.07,10.49, -0.10,0.00,-0.01
0.50,0.08,10.53, -0.10,0.00,-0.01
0.49,0.07,10.53, -0.10,-0.00,-0.01
0.50,0.06,10.54, -0.10,-0.00,-0.01
0.49,0.07,10.54, -0.10,-0.00,-0.01
0.50,0.05,10.54, -0.10,-0.00,-0.01
0.49,0.06,10.50, -0.10,-0.00,-0.01
0.49,0.07,10.51, -0.10,0.00,-0.01
0.51,0.06,10.51, -0.10,0.00,-0.01
0.52,0.05,10.49, -0.10,0.00,-0.01
0.52,0.06,10.55, -0.10,-0.00,-0.01
0.49,0.05,10.55, -0.10,-0.00,-0.01
0.49,0.06,10.50, -0.10,-0.00,-0.01
0.49,0.06,10.53, -0.10,-0.00,-0.01
0.50,0.06,10.53, -0.10,-0.00,-0.01
0.51,0.08,10.51, -0.10,0.00,-0.01
0.50,0.06,10.55, -0.10,-0.00,-0.01
0.49,0.05,10.52, -0.10,-0.00,-0.01
0.49,0.06,10.53, -0.10,-0.00,-0.01
0.51,0.05,10.52, -0.10,-0.00,-0.01
0.48,0.05,10.54, -0.10,-0.00,-0.01
0.48,0.08,10.51, -0.10,-0.00,-0.01
0.48,0.06,10.55, -0.10,-0.00,-0.01
0.50,0.07,10.55, -0.10,-0.00,-0.01
0.49,0.06,10.53, -0.10,-0.00,-0.01
0.51,0.07,10.53, -0.10,-0.00,-0.01
0.51,0.07,10.53, -0.10,-0.00,-0.01
0.52,0.06,10.52, -0.10,0.00,-0.01
0.50,0.05,10.55, -0.10,0.00,-0.01
0.51,0.04,10.54, -0.10,0.00,-0.01
0.50,0.05,10.50, -0.10,-0.00,-0.01
0.50,0.06,10.53, -0.10,-0.00,-0.01
0.50,0.06,10.52, -0.10,-0.00,-0.01
0.48,0.06,10.52, -0.10,0.00,-0.01
0.51,0.05,10.51, -0.10,0.00,-0.01
0.50,0.08,10.52, -0.10,-0.00,-0.01
0.50,0.09,10.52, -0.10,-0.00,-0.01
0.51,0.06,10.56, -0.10,0.00,-0.01
0.51,0.06,10.53, -0.10,-0.00,-0.01
0.51,0.06,10.55, -0.10,-0.00,-0.01
0.51,0.06,10.55, -0.10,0.00,-0.01
0.49,0.05,10.54, -0.10,-0.00,-0.01
0.50,0.06,10.51, -0.10,-0.00,-0.01
0.50,0.05,10.52, -0.10,-0.00,-0.01
0.49,0.07,10.51, -0.10,-0.00,-0.01
0.49,0.06,10.53, -0.10,-0.00,-0.01
0.51,0.05,10.53, -0.10,0.00,-0.01
0.50,0.06,10.53, -0.10,0.00,-0.01
0.50,0.06,10.52, -0.10,-0.00,-0.01
0.50,0.04,10.50, -0.10,-0.00,-0.01
0.51,0.06,10.52, -0.10,-0.00,-0.01
0.49,0.07,10.53, -0.10,-0.00,-0.01
0.51,0.06,10.52, -0.10,-0.00,-0.01
0.50,0.05,10.53, -0.10,-0.00,-0.01
0.50,0.07,10.54, -0.10,-0.00,-0.01
0.51,0.05,10.52, -0.10,-0.00,-0.01
0.50,0.06,10.52, -0.10,-0.00,-0.01
0.50,0.07,10.52, -0.10,-0.00,-0.01
0.50,0.07,10.53, -0.10,-0.00,-0.01
0.51,0.08,10.50, -0.10,-0.00,-0.01
0.51,0.05,10.52, -0.10,-0.00,-0.01
0.50,0.06,10.55, -0.10,-0.00,-0.01
0.48,0.06,10.53, -0.10,-0.00,-0.01
0.49,0.05,10.51, -0.10,0.00,-0.01
0.51,0.04,10.52, -0.10,-0.00,-0.01
0.50,0.07,10.51, -0.10,0.00,-0.01
0.50,0.08,10.53, -0.10,0.00,-0.01
0.49,0.07,10.50, -0.10,-0.00,-0.01
0.49,0.06,10.55, -0.10,0.00,-0.01
0.50,0.06,10.52, -0.10,-0.00,-0.01
0.52,0.06,10.51, -0.10,-0.00,-0.01
0.49,0.07,10.54, -0.10,0.00,-0.01
0.50,0.04,10.55, -0.10,-0.00,-0.01
0.52,0.06,10.52, -0.10,-0.00,-0.01
0.50,0.07,10.53, -0.10,-0.00,-0.01
0.50,0.04,10.52, -0.10,-0.00,-0.01
0.49,0.05,10.54, -0.10,-0.00,-0.01
0.49,0.06,10.51, -0.10,-0.00,-0.01
0.49,0.06,10.53, -0.10,-0.00,-0.01
0.49,0.05,10.52, -0.10,-0.00,-0.01
0.51,0.05,10.51, -0.10,-0.00,-0.01
0.51,0.04,10.49, -0.10,0.00,-0.01
0.50,0.06,10.53, -0.10,-0.00,-0.01
0.50,0.06,10.52, -0.10,-0.00,-0.01
0.53,0.08,10.52, -0.10,-0.00,-0.01
0.50,0.09,10.53, -0.10,0.00,-0.01
0.48,0.06,10.54, -0.10,-0.00,-0.01
0.51,0.07,10.52, -0.10,-0.00,-0.01
0.49,0.06,10.54, -0.10,-0.00,-0.01
0.50,0.06,10.54, -0.10,-0.00,-0.01
0.49,0.07,10.52, -0.10,-0.00,-0.01
0.51,0.06,10.55, -0.10,-0.00,-0.01
0.51,0.07,10.55, -0.10,-0.00,-0.01
0.51,0.04,10.55, -0.10,-0.00,-0.01
0.50,0.05,10.53, -0.10,-0.00,-0.01
0.50,0.04,10.52, -0.10,-0.00,-0.01
0.50,0.07,10.54, -0.10,-0.00,-0.01
0.49,0.05,10.52, -0.10,-0.00,-0.01
0.51,0.05,10.52, -0.10,-0.00,-0.01
0.50,0.06,10.54, -0.10,-0.00,-0.01
0.50,0.06,10.55, -0.10,-0.00,-0.01
0.49,0.06,10.52, -0.10,-0.00,-0.01
0.51,0.05,10.52, -0.10,-0.00,-0.01
0.51,0.07,10.52, -0.10,0.00,-0.01
0.50,0.07,10.54, -0.10,0.00,-0.01
0.52,0.05,10.56, -0.10,0.00,-0.01
0.53,0.06,10.52, -0.10,-0.00,-0.01
0.50,0.06,10.53, -0.10,-0.00,-0.01
0.52,0.08,10.51, -0.10,0.00,-0.01
0.48,0.05,10.56, -0.10,-0.00,-0.01
0.49,0.07,10.53, -0.10,-0.00,-0.01
0.50,0.06,10.54, -0.10,-0.00,-0.01
0.49,0.06,10.52, -0.10,-0.00,-0.01
0.50,0.06,10.51, -0.10,-0.00,-0.01
0.50,0.06,10.52, -0.10,0.00,-0.01
0.49,0.06,10.53, -0.10,-0.00,-0.01
0.50,0.07,10.52, -0.10,-0.00,-0.01
0.51,0.04,10.52, -0.10,-0.00,-0.01
0.49,0.05,10.51, -0.10,-0.00,-0.01
0.50,0.07,10.51, -0.10,0.00,-0.01
0.50,0.08,10.51, -0.10,0.00,-0.01
0.50,0.05,10.51, -0.10,-0.00,-0.01
0.50,0.05,10.52, -0.10,0.00,-0.01
0.51,0.05,10.52, -0.10,-0.00,-0.01
0.50,0.09,10.53, -0.10,-0.00,-0.01
0.50,0.07,10.55, -0.10,-0.00,-0.01
0.49,0.04,10.54, -0.10,-0.00,-0.01
0.52,0.06,10.52, -0.10,0.00,-0.01
0.51,0.06,10.49, -0.10,-0.00,-0.01
0.52,0.06,10.54, -0.10,-0.00,-0.01
0.51,0.06,10.52, -0.10,-0.00,-0.01
0.50,0.05,10.54, -0.10,-0.00,-0.01
0.49,0.06,10.53, -0.10,-0.00,-0.01
0.51,0.06,10.51, -0.10,0.00,-0.01
0.51,0.05,10.55, -0.10,0.00,-0.01
0.51,0.04,10.56, -0.10,-0.00,-0.01
0.50,0.07,10.56, -0.10,-0.00,-0.01
0.52,0.06,10.52, -0.10,-0.00,-0.01
0.51,0.07,10.53, -0.10,-0.00,-0.01
0.51,0.06,10.55, -0.10,-0.00,-0.01
0.50,0.06,10.54, -0.10,-0.00,-0.01
0.49,0.06,10.51, -0.10,-0.00,-0.01
0.49,0.06,10.53, -0.10,-0.00,-0.01
0.49,0.04,10.55, -0.10,-0.00,-0.01
0.50,0.05,10.52, -0.10,0.00,-0.01
0.50,0.08,10.53, -0.10,0.00,-0.01
0.51,0.06,10.54, -0.10,-0.00,-0.01
0.51,0.06,10.56, -0.10,-0.00,-0.01
0.51,0.07,10.53, -0.10,-0.00,-0.01
0.51,0.06,10.52, -0.10,0.00,-0.01
0.50,0.06,10.50, -0.10,-0.00,-0.01
0.49,0.05,10.52, -0.10,-0.00,-0.01
0.50,0.04,10.52, -0.10,0.00,-0.01
0.51,0.06,10.55, -0.10,-0.00,-0.01
0.48,0.07,10.52, -0.10,-0.00,-0.01
0.50,0.07,10.53, -0.10,-0.00,-0.01
0.49,0.06,10.53, -0.10,0.00,-0.01
0.49,0.06,10.52, -0.10,-0.00,-0.01
0.50,0.06,10.54, -0.10,-0.00,-0.01
0.51,0.06,10.53, -0.10,-0.00,-0.01
0.49,0.06,10.51, -0.10,-0.00,-0.01
0.50,0.06,10.50, -0.10,-0.00,-0.01
0.49,0.06,10.55, -0.10,-0.00,-0.01
0.49,0.05,10.54, -0.10,-0.00,-0.01
0.49,0.07,10.54, -0.10,-0.00,-0.01
0.52,0.06,10.55, -0.10,-0.00,-0.01
0.51,0.06,10.54, -0.10,-0.00,-0.01
0.48,0.04,10.55, -0.10,-0.00,-0.01
0.49,0.05,10.52, -0.10,-0.00,-0.01
0.49,0.07,10.51, -0.10,-0.00,-0.01
0.49,0.06,10.52, -0.10,-0.00,-0.01
0.47,0.07,10.53, -0.10,0.00,-0.01
0.49,0.05,10.54, -0.10,0.00,-0.01
0.50,0.05,10.55, -0.10,0.00,-0.01
0.51,0.05,10.53, -0.10,-0.00,-0.01
0.50,0.04,10.54, -0.10,-0.00,-0.01
0.51,0.07,10.53, -0.10,-0.00,-0.01
0.48,0.07,10.49, -0.10,-0.00,-0.01
0.50,0.05,10.53, -0.10,0.00,-0.01
0.50,0.06,10.57, -0.10,0.00,-0.01
0.50,0.05,10.54, -0.10,0.00,-0.01
0.50,0.06,10.52, -0.10,-0.00,-0.01
0.50,0.04,10.52, -0.10,0.00,-0.01
0.51,0.05,10.54, -0.10,0.00,-0.01
0.52,0.06,10.54, -0.10,0.00,-0.01
0.51,0.07,10.48, -0.10,0.00,-0.01
0.51,0.03,10.54, -0.10,0.00,-0.01
0.48,0.06,10.55, -0.10,0.00,-0.01
0.49,0.06,10.53, -0.10,0.00,-0.01
0.51,0.07,10.52, -0.10,0.00,-0.01
0.50,0.06,10.49, -0.10,0.00,-0.01
0.51,0.06,10.51, -0.10,0.00,-0.01
0.50,0.04,10.53, -0.10,0.00,-0.01
0.50,0.07,10.53, -0.10,0.00,-0.01
0.48,0.03,10.52, -0.10,0.00,-0.01
0.50,0.03,10.56, -0.10,0.00,-0.01
0.49,0.07,10.55, -0.10,0.00,-0.01
0.49,0.06,10.54, -0.10,0.00,-0.01
0.48,0.04,10.54, -0.10,0.00,-0.01
0.47,0.06,10.58, -0.10,-0.00,-0.01
0.51,0.09,10.50, -0.10,-0.00,-0.01
0.49,0.05,10.50, -0.10,-0.00,-0.01
0.47,0.05,10.59, -0.10,-0.00,-0.01
0.48,0.03,10.64, -0.10,-0.01,-0.01
0.48,0.02,10.56, -0.10,-0.01,-0.01
0.51,0.04,10.51, -0.10,-0.01,-0.01
0.51,0.03,10.61, -0.10,-0.01,-0.01
0.50,0.05,10.62, -0.09,-0.01,-0.01
0.49,0.04,10.60, -0.09,-0.02,-0.01
0.52,0.05,10.55, -0.09,-0.02,-0.01
0.51,0.07,10.45, -0.09,-0.02,-0.01
0.52,0.09,10.38, -0.09,-0.01,-0.01
0.52,0.08,10.37, -0.10,-0.01,-0.01
0.51,0.09,10.47, -0.10,-0.00,-0.01
0.51,0.05,10.58, -0.10,-0.00,-0.01
0.53,0.08,10.50, -0.10,-0.00,-0.01
0.53,0.07,10.53, -0.10,-0.00,-0.01
0.51,0.06,10.62, -0.10,-0.00,-0.01
0.52,0.07,10.48, -0.10,-0.00,-0.01
0.53,0.06,10.49, -0.10,0.00,-0.01
0.50,0.06,10.57, -0.10,-0.00,-0.01
0.51,0.06,10.51, -0.10,-0.00,-0.01
0.52,0.07,10.49, -0.10,0.00,-0.01
0.50,0.07,10.58, -0.10,-0.00,-0.01
0.51,0.07,10.49, -0.10,-0.00,-0.01
0.53,0.08,10.50, -0.10,0.00,-0.01
0.52,0.06,10.56, -0.10,-0.00,-0.01
0.52,0.07,10.50, -0.10,-0.00,-0.01
0.51,0.07,10.51, -0.10,-0.00,-0.01
0.50,0.06,10.56, -0.10,-0.00,-0.01
0.52,0.07,10.50, -0.10,-0.00,-0.01
0.53,0.05,10.49, -0.10,0.00,-0.01
0.52,0.04,10.52, -0.10,0.00,-0.01
0.50,0.09,10.50, -0.10,-0.00,-0.01
0.49,0.09,10.53, -0.10,0.00,-0.01
0.52,0.05,10.56, -0.10,-0.00,-0.01
0.50,0.07,10.51, -0.10,-0.00,-0.01
0.50,0.07,10.50, -0.10,0.00,-0.01
0.50,0.06,10.56, -0.10,-0.00,-0.01
0.50,0.06,10.50, -0.10,-0.00,-0.01
0.51,0.05,10.53, -0.10,0.00,-0.01
0.51,0.03,10.53, -0.10,-0.00,-0.01
0.52,0.06,10.53, -0.10,-0.00,-0.01
0.51,0.04,10.51, -0.10,-0.00,-0.01
0.52,0.06,10.56, -0.10,-0.00,-0.01
0.51,0.06,10.53, -0.10,-0.00,-0.01
0.52,0.08,10.52, -0.10,0.00,-0.01
0.52,0.08,10.52, -0.10,0.00,-0.01
0.51,0.08,10.51, -0.10,-0.00,-0.01
0.50,0.06,10.54, -0.10,0.00,-0.01
0.51,0.04,10.53, -0.10,-0.00,-0.01
0.51,0.06,10.51, -0.10,-0.00,-0.01
0.52,0.07,10.50, -0.10,-0.00,-0.01
0.51,0.06,10.54, -0.10,-0.00,-0.01
0.51,0.07,10.51, -0.10,-0.00,-0.01
0.52,0.06,10.52, -0.10,-0.00,-0.01
0.93,-0.55,10.46, -0.04,0.04,-0.06
1.27,-0.85,10.19, -0.00,0.07,-0.58
1.13,-0.19,10.99, -0.17,-0.04,-0.99
0.61,0.69,10.22, -0.05,-0.01,-0.94
-0.20,0.34,10.43, -0.12,-0.01,-0.72
-0.16,0.29,10.90, -0.09,-0.00,-0.44
-0.06,0.63,10.30, -0.11,-0.02,-0.16
0.45,0.09,10.42, -0.10,0.00,-0.02
0.48,0.00,10.83, -0.10,-0.00,-0.01
0.50,0.14,10.28, -0.10,-0.01,-0.01
0.50,0.06,10.43, -0.10,0.00,-0.01
0.51,0.00,10.76, -0.10,-0.00,-0.01
0.51,0.14,10.32, -0.10,-0.00,-0.01
0.51,0.03,10.52, -0.10,0.01,-0.01
0.49,0.01,10.73, -0.10,0.00,-0.01
0.50,0.16,10.38, -0.10,-0.00,-0.01
0.51,0.07,10.52, -0.10,0.00,-0.01
0.54,0.00,10.64, -0.10,-0.00,-0.01
0.50,0.13,10.37, -0.10,-0.00,-0.01
0.51,0.07,10.56, -0.10,0.00,-0.01
0.52,-0.00,10.62, -0.09,0.01,-0.01
0.50,0.11,10.43, -0.09,0.01,-0.01
0.49,0.09,10.57, -0.09,0.01,-0.01
0.51,0.01,10.61, -0.09,0.00,-0.01
0.50,0.08,10.44, -0.10,0.00,-0.01
0.49,0.11,10.56, -0.10,0.00,-0.01
0.52,0.06,10.61, -0.10,-0.00,-0.01
0.50,0.07,10.40, -0.11,-0.00,-0.01
0.51,0.08,10.56, -0.10,-0.00,-0.01
0.49,0.07,10.59, -0.10,-0.00,-0.01
0.50,0.08,10.42, -0.10,-0.00,-0.01
0.49,0.07,10.52, -0.10,0.00,-0.00
0.50,0.07,10.59, -0.10,0.00,-0.00
0.49,0.09,10.48, -0.10,0.01,-0.00
0.47,0.07,10.54, -0.10,0.01,-0.00
0.49,0.07,10.57, -0.10,0.01,-0.00
0.53,0.03,10.51, -0.10,0.01,-0.01
0.50,0.07,10.54, -0.09,0.02,-0.01
0.54,0.04,10.57, -0.09,0.03,-0.02
0.64,0.03,10.51, -0.08,0.05,-0.06
0.61,0.06,10.47, -0.08,0.08,-0.11
0.50,0.05,10.65, -0.07,0.08,-0.15
0.53,0.10,10.54, -0.06,0.07,-0.15
0.03,0.14,10.47, -0.07,0.07,-0.10
0.31,0.11,10.48, -0.06,0.01,0.01
0.24,0.13,10.47, -0.08,0.03,0.06
0.31,0.17,10.41, -0.10,0.02,0.11
0.36,0.11,10.53, -0.12,0.01,0.14
0.35,0.06,10.57, -0.13,0.00,0.16
0.42,0.09,10.50, -0.13,0.02,0.18
0.42,0.07,10.60, -0.12,0.04,0.18
0.51,-0.00,10.47, -0.12,0.07,0.18
0.76,-0.01,10.45, -0.12,0.12,0.12
0.70,0.21,10.49, -0.12,0.17,0.04
0.41,0.12,10.59, -0.13,0.24,0.01
0.23,0.02,10.55, -0.12,0.19,0.02
0.32,0.06,10.54, -0.11,0.11,0.02
0.35,0.11,10.62, -0.11,0.11,0.00
0.30,0.08,10.56, -0.10,0.14,-0.00
0.28,0.06,10.48, -0.10,0.16,0.00
0.25,0.06,10.51, -0.10,0.16,0.01
0.25,0.05,10.53, -0.11,0.18,0.03
0.22,0.07,10.49, -0.11,0.23,0.04
0.11,0.02,10.54, -0.12,0.26,0.06
0.12,0.02,10.52, -0.13,0.26,0.08
0.07,0.03,10.50, -0.12,0.24,0.09
0.06,0.06,10.55, -0.11,0.19,0.08
0.04,0.06,10.50, -0.10,0.15,0.07
0.04,0.07,10.49, -0.10,0.14,0.07
-0.01,0.04,10.56, -0.09,0.13,0.07
0.01,0.08,10.56, -0.09,0.14,0.07
0.05,0.09,10.49, -0.09,0.17,0.06
-0.01,0.07,10.49, -0.10,0.20,0.05
-0.06,0.06,10.52, -0.10,0.19,0.05
-0.04,0.06,10.52, -0.09,0.21,0.05
-0.05,0.04,10.63, -0.07,0.25,0.04
-0.17,0.07,10.52, -0.07,0.29,0.04
-0.28,0.06,10.37, -0.09,0.26,0.03
-0.29,0.05,10.47, -0.09,0.21,0.03
-0.21,0.10,10.59, -0.10,0.21,0.03
-0.14,0.14,10.63, -0.12,0.27,0.02
-0.24,0.11,10.61, -0.14,0.37,0.01
-0.41,0.05,10.64, -0.14,0.45,0.02
-0.43,-0.01,10.54, -0.12,0.45,0.02
-0.53,-0.08,10.43, -0.09,0.44,0.03
-0.62,-0.05,10.53, -0.08,0.44,0.05
-0.64,0.11,10.49, -0.08,0.43,0.06
-0.70,0.10,10.48, -0.09,0.44,0.06
-0.93,0.03,10.51, -0.10,0.46,0.08
-0.76,0.15,10.54, -0.11,0.51,0.09
-0.98,0.10,10.46, -0.12,0.59,0.10
-1.00,0.02,10.49, -0.12,0.66,0.12
-0.82,0.06,10.41, -0.12,0.70,0.12
-0.91,0.12,10.43, -0.11,0.73,0.11
-1.10,0.09,10.52, -0.10,0.76,0.09
-1.38,0.09,10.44, -0.10,0.82,0.10
-1.52,0.07,10.39, -0.11,0.91,0.12
-1.42,0.11,10.36, -0.12,0.97,0.13
-1.48,0.13,10.22, -0.12,0.99,0.12
-1.71,0.10,10.11, -0.13,0.97,0.11
-1.81,0.08,10.14, -0.13,0.93,0.10
-1.83,0.13,10.03, -0.12,0.88,0.09
-1.98,0.15,10.01, -0.12,0.80,0.06
-2.09,0.13,10.06, -0.11,0.72,0.04
-2.09,0.17,10.00, -0.11,0.68,0.02
-2.22,0.16,10.07, -0.10,0.66,-0.01
-2.39,0.11,10.03, -0.09,0.66,-0.03
-2.43,0.11,10.02, -0.09,0.69,-0.05
-2.51,0.09,10.03, -0.09,0.74,-0.07
-2.64,0.05,10.09, -0.10,0.79,-0.07
-2.73,0.04,10.10, -0.09,0.84,-0.07
-2.84,0.02,10.00, -0.08,0.88,-0.07
-2.94,0.02,9.90, -0.08,0.91,-0.06
-3.00,0.06,9.81, -0.07,0.93,-0.06
-3.11,0.08,9.79, -0.07,0.96,-0.06
-3.28,0.05,9.68, -0.07,0.99,-0.06
-3.37,-0.07,9.58, -0.06,1.00,-0.07
-3.51,-0.06,9.40, -0.06,0.96,-0.08
-3.52,-0.08,9.28, -0.05,0.85,-0.09
-3.44,-0.25,9.25, -0.01,0.68,-0.12
-3.82,-0.09,9.06, 0.01,0.51,-0.15
-3.95,0.12,9.04, 0.02,0.37,-0.14
-3.99,0.15,9.08, 0.02,0.25,-0.15
-4.02,0.25,9.11, 0.01,0.16,-0.15
-3.95,0.20,9.33, 0.00,0.13,-0.16
-3.94,0.12,9.45, 0.00,0.16,-0.16
-3.99,0.20,9.53, -0.01,0.25,-0.16
-4.12,0.39,9.47, -0.02,0.38,-0.14
-4.17,0.40,9.46, -0.04,0.52,-0.09
-4.11,0.28,9.46, -0.06,0.66,-0.07
-4.09,0.19,9.35, -0.07,0.78,-0.05
-4.28,0.16,9.28, -0.07,0.84,-0.05
-4.29,0.18,9.07, -0.08,0.86,-0.04
-4.46,0.13,8.94, -0.07,0.83,-0.05
-4.38,0.13,8.97, -0.05,0.77,-0.06
-4.70,0.06,8.85, -0.06,0.77,-0.06
-4.84,0.10,8.86, -0.07,0.81,-0.05
-4.79,0.11,8.81, -0.08,0.86,-0.04
-4.86,0.12,8.72, -0.08,0.89,-0.03
-4.97,0.14,8.63, -0.09,0.90,-0.04
-5.09,0.16,8.50, -0.08,0.88,-0.04
-5.22,0.11,8.41, -0.08,0.83,-0.05
-5.13,0.33,8.42, -0.07,0.77,-0.04
-5.32,0.31,8.35, -0.07,0.73,-0.04
-5.41,0.17,8.38, -0.07,0.72,-0.04
-5.38,0.13,8.30, -0.08,0.76,-0.04
-5.49,0.17,8.23, -0.08,0.79,-0.04
-5.66,0.15,8.14, -0.09,0.78,-0.04
-5.64,0.07,8.04, -0.08,0.74,-0.04
-5.76,0.03,7.98, -0.08,0.72,-0.04
-5.91,0.05,7.83, -0.08,0.71,-0.05
-6.00,0.07,7.73, -0.07,0.68,-0.04
-6.07,0.11,7.66, -0.06,0.63,-0.03
-6.00,0.16,7.65, -0.06,0.56,-0.04
-6.03,0.12,7.66, -0.06,0.50,-0.05
-6.06,0.12,7.69, -0.07,0.48,-0.06
-6.11,0.16,7.64, -0.09,0.47,-0.08
-6.17,0.11,7.64, -0.10,0.48,-0.09
-6.28,0.05,7.52, -0.08,0.48,-0.08
-6.41,0.10,7.48, -0.07,0.47,-0.05
-6.40,0.09,7.41, -0.05,0.48,-0.01
-6.38,0.08,7.43, -0.06,0.50,0.02
-6.45,0.10,7.42, -0.07,0.53,0.03
-6.43,0.17,7.33, -0.09,0.58,0.02
-6.51,0.27,7.20, -0.12,0.60,0.02
-6.64,0.27,7.06, -0.13,0.57,0.02
-6.61,0.23,6.98, -0.13,0.51,0.02
-6.64,0.26,6.97, -0.14,0.41,0.01
-6.67,0.18,6.95, -0.13,0.28,-0.01
-6.62,0.24,7.01, -0.14,0.18,-0.04
-6.65,0.26,7.02, -0.15,0.16,-0.06
-6.72,0.20,7.03, -0.15,0.20,-0.08
-6.76,0.07,7.05, -0.15,0.25,-0.07
-6.77,0.03,6.99, -0.14,0.27,-0.08
-6.69,0.05,7.07, -0.13,0.29,-0.07
-6.76,-0.08,7.11, -0.09,0.33,-0.06
-6.88,-0.17,7.07, -0.05,0.40,-0.02
-6.85,0.00,6.98, -0.04,0.47,-0.01
-6.92,0.14,6.82, -0.05,0.54,-0.01
-6.96,0.13,6.73, -0.06,0.59,-0.01
-7.01,0.04,6.57, -0.07,0.60,-0.02
-7.02,0.02,6.50, -0.07,0.58,-0.04
-7.12,0.07,6.44, -0.08,0.54,-0.08
-7.18,0.09,6.45, -0.09,0.51,-0.11
-7.18,0.11,6.41, -0.10,0.52,-0.13
-7.24,0.10,6.38, -0.11,0.57,-0.14
-7.30,0.04,6.21, -0.12,0.62,-0.14
-7.31,-0.17,6.22, -0.12,0.65,-0.12
-7.35,-0.32,6.19, -0.10,0.67,-0.09
-7.38,-0.22,6.21, -0.09,0.69,-0.08
-7.39,-0.23,6.14, -0.09,0.76,-0.07
-7.45,-0.13,6.03, -0.08,0.84,-0.06
-7.59,-0.12,5.86, -0.09,0.92,-0.05
-7.65,-0.05,5.59, -0.10,0.94,-0.05
-7.74,-0.03,5.33, -0.12,0.88,-0.05
-7.81,-0.03,5.21, -0.13,0.77,-0.05
-7.86,-0.07,5.18, -0.13,0.66,-0.04
-7.88,-0.04,5.20, -0.12,0.59,-0.02
-7.91,0.03,5.19, -0.12,0.55,-0.02
-7.93,-0.00,5.10, -0.13,0.53,-0.02
-7.95,-0.10,5.10, -0.13,0.52,-0.03
-7.94,-0.18,5.13, -0.13,0.52,-0.02
-7.94,-0.19,5.17, -0.12,0.53,-0.01
-8.00,-0.11,5.07, -0.12,0.60,-0.02
-8.02,0.00,4.97, -0.14,0.72,-0.03
-8.14,-0.03,4.87, -0.16,0.85,-0.02
-8.17,-0.16,4.75, -0.17,0.98,0.02
-8.13,-0.15,4.65, -0.18,1.08,0.05
-8.21,-0.11,4.56, -0.19,1.14,0.04
-8.33,-0.11,4.25, -0.18,1.17,0.05
-8.32,-0.17,4.13, -0.17,1.14,0.06
-8.49,-0.04,3.85, -0.17,1.08,0.05
-8.55,0.08,3.51, -0.17,0.98,0.05
-8.61,0.14,3.31, -0.19,0.87,0.04
-8.66,0.05,3.30, -0.21,0.74,0.02
-8.62,-0.05,3.34, -0.21,0.57,-0.02
-8.66,-0.15,3.28, -0.20,0.40,-0.06
-8.65,-0.23,3.37, -0.19,0.26,-0.06
-8.61,-0.29,3.48, -0.15,0.16,-0.05
-8.62,-0.27,3.55, -0.12,0.11,-0.02
-8.64,-0.29,3.63, -0.09,0.11,0.00
-8.61,-0.21,3.62, -0.07,0.14,0.03
-8.59,-0.01,3.59, -0.06,0.19,0.06
-8.61,0.01,3.55, -0.07,0.25,0.07
-8.55,-0.02,3.52, -0.08,0.32,0.08
-8.64,-0.04,3.49, -0.09,0.41,0.09
-8.65,-0.08,3.31, -0.10,0.50,0.09
-8.69,-0.05,3.22, -0.11,0.58,0.10
-8.72,0.01,3.05, -0.12,0.62,0.10
-8.78,0.04,2.84, -0.13,0.61,0.10
-8.88,0.06,2.76, -0.14,0.56,0.10
-8.82,0.04,2.76, -0.14,0.51,0.10
-8.83,0.06,2.72, -0.14,0.47,0.09
-8.78,0.12,2.67, -0.13,0.45,0.09
-8.81,0.11,2.66, -0.13,0.45,0.10
-8.81,0.04,2.72, -0.14,0.44,0.10
-8.87,0.09,2.51, -0.15,0.40,0.08
-8.89,0.03,2.52, -0.16,0.37,0.09
-8.91,0.02,2.56, -0.17,0.36,0.12
-8.86,0.03,2.52, -0.17,0.38,0.15
-8.54,0.54,2.50, -0.19,0.49,0.09
-8.78,0.26,2.39, -0.22,0.67,0.03
-8.81,0.20,2.27, -0.26,0.83,0.02
-8.99,0.09,2.17, -0.28,0.95,0.02
-9.02,0.03,1.84, -0.27,0.98,0.01
-8.97,0.11,1.72, -0.24,0.95,0.01
-8.98,0.15,1.58, -0.21,0.85,0.00
-9.02,0.23,1.60, -0.18,0.72,-0.01
-9.15,0.11,1.41, -0.14,0.53,-0.01
-9.20,0.15,1.21, -0.09,0.31,-0.01
-9.18,0.04,1.24, -0.06,0.12,-0.01
-9.09,0.07,1.26, -0.04,-0.03,-0.01
-9.03,0.17,1.29, -0.03,-0.12,-0.02
-8.97,0.23,1.30, -0.05,-0.16,-0.02
-9.03,0.20,1.35, -0.07,-0.16,-0.02
-9.09,0.13,1.47, -0.08,-0.17,-0.01
-9.05,0.06,1.53, -0.09,-0.16,-0.01
-8.98,0.07,1.64, -0.09,-0.14,-0.01
-8.95,0.15,1.72, -0.09,-0.08,-0.01
-8.93,0.24,1.71, -0.10,-0.02,-0.01
-8.94,0.24,1.70, -0.11,0.05,-0.01
-9.02,0.14,1.61, -0.11,0.09,-0.01
-9.05,0.13,1.59, -0.11,0.12,-0.00
-9.05,0.14,1.53, -0.11,0.12,-0.00
-9.01,0.13,1.52, -0.10,0.11,-0.00
-8.97,0.14,1.50, -0.10,0.10,-0.00
-8.97,0.15,1.53, -0.10,0.11,-0.00
-9.00,0.13,1.52, -0.11,0.15,-0.00
-9.01,0.09,1.50, -0.12,0.20,-0.00
-9.02,0.10,1.44, -0.12,0.25,-0.01
-9.04,0.13,1.38, -0.12,0.26,-0.01
-9.05,0.13,1.31, -0.11,0.26,-0.01
-9.07,0.15,1.23, -0.11,0.23,-0.01
-9.10,0.13,1.17, -0.11,0.19,-0.01
-9.08,0.12,1.17, -0.11,0.14,-0.01
-9.10,0.12,1.18, -0.10,0.10,-0.01
-9.04,0.11,1.24, -0.11,0.08,-0.01
-9.03,0.08,1.24, -0.11,0.08,-0.01
-9.05,0.12,1.25, -0.11,0.09,-0.01
-9.03,0.15,1.20, -0.11,0.10,-0.01
-9.01,0.18,1.16, -0.12,0.11,-0.01
-9.05,0.13,1.12, -0.13,0.10,-0.01
-9.06,0.17,1.07, -0.13,0.09,-0.01
-9.08,0.14,1.04, -0.13,0.06,-0.01
-9.09,0.10,1.07, -0.13,0.03,-0.02
-9.07,0.09,1.14, -0.13,-0.00,-0.02
-9.12,0.13,1.19, -0.12,-0.01,-0.01
-9.07,0.14,1.23, -0.11,-0.01,-0.01
-9.00,0.17,1.22, -0.11,0.00,-0.01
-9.00,0.15,1.14, -0.11,0.02,-0.01
-9.05,0.15,1.13, -0.12,0.03,-0.02
-9.08,0.11,1.14, -0.11,0.04,-0.02
-9.08,0.12,1.12, -0.11,0.03,-0.02
-9.03,0.11,1.11, -0.12,0.03,-0.02
-9.06,0.11,1.14, -0.12,0.03,-0.02
-9.03,0.11,1.16, -0.12,0.04,-0.02
-9.04,0.12,1.19, -0.12,0.07,-0.01
-9.03,0.12,1.17, -0.12,0.09,-0.01
-9.05,0.11,1.11, -0.11,0.10,-0.01
-9.07,0.12,1.07, -0.10,0.10,-0.01
-9.11,0.11,1.05, -0.10,0.08,-0.02
-9.07,0.11,1.03, -0.10,0.06,-0.02
-9.07,0.11,1.04, -0.10,0.04,-0.02
-9.06,0.11,1.04, -0.10,0.03,-0.01
-9.05,0.11,1.01, -0.10,0.02,-0.01
-9.04,0.10,0.99, -0.10,0.01,-0.01
-9.09,0.10,0.97, -0.10,-0.00,-0.01
-9.10,0.10,0.96, -0.10,-0.02,-0.01
-9.08,0.10,1.02, -0.10,-0.04,-0.01
-9.04,0.11,1.03, -0.11,-0.04,-0.01
-9.02,0.13,1.06, -0.11,-0.03,-0.01
-9.05,0.12,1.05, -0.11,-0.02,-0.01
-9.06,0.10,1.04, -0.11,-0.01,-0.01
-9.08,0.11,1.06, -0.11,-0.01,-0.01
-9.08,0.12,1.06, -0.11,-0.02,-0.00
-9.05,0.11,1.07, -0.11,-0.02,-0.00
-9.07,0.10,1.05, -0.11,-0.02,-0.00
-9.05,0.10,1.06, -0.10,-0.02,-0.01
-9.06,0.12,1.05, -0.10,-0.03,-0.01
-9.09,0.12,1.07, -0.10,-0.04,-0.01
-9.13,0.09,1.06, -0.10,-0.05,-0.01
-9.06,0.10,1.11, -0.10,-0.05,-0.01
-9.02,0.11,1.13, -0.10,-0.04,-0.01
-9.02,0.11,1.08, -0.10,-0.03,-0.01
-9.08,0.09,1.11, -0.10,-0.03,-0.01
-9.08,0.10,1.09, -0.10,-0.04,-0.01
-9.06,0.10,1.10, -0.10,-0.04,-0.01
-9.05,0.10,1.14, -0.10,-0.04,-0.01
-9.05,0.12,1.16, -0.10,-0.02,-0.01
-9.02,0.12,1.18, -0.10,-0.00,-0.01
-9.05,0.11,1.12, -0.10,0.02,-0.01
-9.08,0.11,1.15, -0.10,0.02,-0.01
-9.05,0.10,1.16, -0.09,0.04,-0.01
-8.98,0.13,1.18, -0.09,0.06,-0.01
-8.98,0.12,1.17, -0.09,0.11,-0.01
-9.05,0.11,1.08, -0.10,0.14,-0.01
-9.13,0.08,1.00, -0.10,0.13,-0.01
-9.12,0.12,0.92, -0.10,0.09,-0.01
-9.10,0.11,0.92, -0.10,0.04,-0.01
-9.08,0.12,0.96, -0.10,-0.01,-0.01
-9.08,0.11,0.98, -0.10,-0.04,-0.01
-9.08,0.12,1.04, -0.10,-0.05,-0.01
-9.06,0.11,1.01, -0.10,-0.06,-0.01
-9.07,0.11,1.05, -0.10,-0.06,-0.01
-9.10,0.12,1.08, -0.10,-0.06,-0.01
-9.05,0.11,1.12, -0.10,-0.05,-0.01
-9.02,0.12,1.18, -0.10,-0.02,-0.01
-8.99,0.11,1.19, -0.10,0.02,-0.01
-9.03,0.09,1.11, -0.10,0.06,-0.01
-9.09,0.08,1.04, -0.11,0.07,-0.01
-9.11,0.05,1.00, -0.11,0.06,-0.00
-9.06,0.11,1.01, -0.11,0.05,0.00
-9.05,0.11,1.02, -0.11,0.04,0.00
-9.06,0.14,1.02, -0.11,0.03,-0.00
-9.03,0.14,1.05, -0.10,0.02,-0.00
-9.05,0.12,1.06, -0.10,0.02,-0.01
-9.06,0.12,1.05, -0.10,0.02,-0.01
-9.05,0.12,1.04, -0.10,0.02,-0.01
-9.04,0.09,1.05, -0.10,0.02,-0.01
-9.03,0.10,1.03, -0.10,0.02,-0.01
-9.05,0.12,1.05, -0.10,0.04,-0.01
-9.07,0.12,1.03, -0.10,0.05,-0.01
-9.07,0.09,0.99, -0.10,0.05,-0.01
-9.07,0.10,0.95, -0.10,0.05,-0.01
-9.09,0.10,0.94, -0.10,0.03,-0.01
-9.08,0.12,0.93, -0.10,0.01,-0.00
-9.08,0.11,0.98, -0.10,-0.00,-0.00
-9.03,0.11,1.03, -0.10,0.01,-0.00
-9.03,0.10,1.07, -0.10,0.02,-0.00
-9.07,0.11,1.04, -0.10,0.04,-0.01
-9.11,0.09,1.00, -0.10,0.05,-0.00
-9.08,0.11,0.96, -0.10,0.05,-0.00
-9.07,0.11,0.94, -0.10,0.04,-0.00
-9.08,0.11,0.96, -0.10,0.03,0.00
-9.08,0.11,0.96, -0.10,0.03,-0.00
-9.06,0.12,0.98, -0.10,0.04,-0.00
-9.07,0.12,0.96, -0.10,0.05,-0.00
-9.08,0.12,0.92, -0.10,0.05,-0.00
-9.08,0.13,0.91, -0.10,0.03,-0.00
-9.12,0.12,0.88, -0.10,0.01,-0.00
-9.09,0.13,0.92, -0.10,-0.01,-0.00
-9.07,0.12,0.95, -0.10,-0.02,-0.00
-9.07,0.11,0.97, -0.10,-0.02,-0.01
-9.05,0.14,0.98, -0.10,-0.00,-0.01
-9.07,0.12,0.97, -0.10,0.01,-0.01
-9.09,0.11,0.96, -0.10,0.01,-0.01
-9.05,0.13,0.94, -0.10,0.02,-0.01
-9.07,0.12,0.94, -0.10,0.03,-0.01
-9.07,0.10,0.92, -0.10,0.04,-0.01
-9.07,0.11,0.92, -0.10,0.05,-0.01
-9.10,0.12,0.88, -0.10,0.04,-0.01
-9.09,0.12,0.88, -0.10,0.03,-0.01
-9.06,0.14,0.85, -0.10,0.01,-0.01
-9.10,0.12,0.85, -0.10,-0.01,-0.02
-9.12,0.12,0.84, -0.09,-0.04,-0.02
-9.08,0.09,0.90, -0.09,-0.05,-0.01
-9.04,0.11,0.93, -0.09,-0.05,-0.01
-9.04,0.12,0.96, -0.09,-0.04,-0.02
-9.07,0.11,0.99, -0.09,-0.03,-0.02
-9.06,0.09,0.97, -0.09,-0.01,-0.02
-9.04,0.09,0.96, -0.10,0.00,-0.01
-9.06,0.11,0.94, -0.10,0.02,-0.01
-9.08,0.09,0.95, -0.10,0.02,-0.01
-9.07,0.10,0.93, -0.10,0.03,-0.01
-9.06,0.08,0.95, -0.10,0.04,-0.01
-9.08,0.10,0.93, -0.10,0.04,-0.01
-9.06,0.10,0.91, -0.10,0.03,-0.01
-9.06,0.09,0.84, -0.10,0.02,-0.01
-9.10,0.09,0.89, -0.10,0.01,-0.01
-9.08,0.11,0.92, -0.10,0.01,-0.01
-9.05,0.11,0.93, -0.10,0.01,-0.01
-9.04,0.11,0.91, -0.10,0.01,-0.01
-9.05,0.11,0.93, -0.10,0.02,-0.01
-9.08,0.12,0.90, -0.10,0.03,-0.01
-9.08,0.12,0.88, -0.10,0.03,-0.01
-9.08,0.11,0.85, -0.10,0.02,-0.01
-9.09,0.11,0.85, -0.09,-0.00,-0.01
-9.09,0.12,0.87, -0.10,-0.02,-0.01
-9.06,0.11,0.89, -0.10,-0.02,-0.01
-9.08,0.11,0.90, -0.10,-0.02,-0.01
-9.05,0.12,0.91, -0.10,-0.01,-0.01
-9.06,0.09,0.93, -0.10,0.00,-0.01
-9.07,0.09,0.90, -0.10,0.01,-0.01
-9.06,0.12,0.93, -0.10,0.01,-0.01
-9.05,0.09,0.85, -0.10,0.02,-0.01
-9.07,0.10,0.88, -0.11,0.03,-0.01
-9.09,0.09,0.86, -0.11,0.03,-0.01
-9.07,0.10,0.87, -0.12,0.03,-0.01
-9.05,0.09,0.89, -0.12,0.03,-0.01
-9.08,0.08,0.88, -0.11,0.02,-0.01
-9.10,0.07,0.91, -0.11,0.01,-0.00
-9.09,0.10,0.91, -0.10,0.00,-0.00
-9.08,0.11,0.93, -0.10,0.01,-0.00
-9.06,0.10,0.90, -0.10,0.02,-0.00
-9.05,0.11,0.90, -0.10,0.05,-0.00
-9.05,0.11,0.90, -0.10,0.07,-0.00
-9.09,0.11,0.86, -0.10,0.07,-0.00
-9.12,0.08,0.79, -0.11,0.07,-0.00
-9.10,0.08,0.79, -0.11,0.05,0.00
-9.08,0.11,0.78, -0.11,0.03,0.00
-9.06,0.13,0.80, -0.10,0.02,0.00
-9.03,0.15,0.83, -0.10,0.02,0.00
-9.04,0.12,0.85, -0.10,0.03,-0.00
-9.11,0.12,0.86, -0.10,0.04,-0.01
-9.10,0.11,0.83, -0.10,0.05,-0.01
-9.07,0.11,0.81, -0.10,0.05,-0.01
-9.06,0.10,0.80, -0.10,0.04,-0.01
-9.07,0.11,0.76, -0.10,0.04,-0.01
-9.09,0.11,0.75, -0.10,0.03,-0.01
-9.11,0.11,0.75, -0.10,0.02,-0.01
-9.09,0.12,0.74, -0.10,-0.00,-0.01
-9.12,0.11,0.73, -0.10,-0.02,-0.01
-9.10,0.12,0.78, -0.10,-0.04,-0.01
-9.03,0.12,0.82, -0.10,-0.04,-0.01
-9.05,0.11,0.82, -0.10,-0.03,-0.01
-9.06,0.13,0.82, -0.10,-0.03,-0.01
-9.07,0.12,0.85, -0.10,-0.02,-0.01
-9.07,0.10,0.83, -0.10,-0.01,-0.01
-9.06,0.13,0.80, -0.10,0.00,-0.01
-9.06,0.12,0.77, -0.10,0.01,-0.01
-9.09,0.11,0.78, -0.10,-0.00,-0.01
-9.11,0.11,0.75, -0.10,-0.02,-0.01
-9.10,0.09,0.77, -0.10,-0.04,-0.01
-9.07,0.11,0.83, -0.10,-0.05,-0.01
-9.04,0.12,0.82, -0.10,-0.04,-0.01
-9.05,0.11,0.84, -0.10,-0.02,-0.02
-9.08,0.09,0.84, -0.10,0.00,-0.02
-9.08,0.11,0.83, -0.11,0.01,-0.02
-9.09,0.11,0.83, -0.11,0.01,-0.01
-9.08,0.11,0.84, -0.10,-0.00,-0.01
-9.07,0.10,0.85, -0.10,-0.01,-0.01
-9.07,0.11,0.85, -0.09,-0.01,-0.01
-9.04,0.13,0.85, -0.09,0.00,-0.01
-9.07,0.10,0.83, -0.10,0.01,-0.01
-9.10,0.10,0.81, -0.10,0.01,-0.01
-9.09,0.08,0.77, -0.10,0.00,-0.01
-9.10,0.09,0.76, -0.10,-0.02,-0.01
-9.08,0.11,0.81, -0.10,-0.03,-0.01
-9.08,0.11,0.88, -0.10,-0.03,-0.01
-9.07,0.10,0.86, -0.09,-0.02,-0.01
-9.03,0.11,0.87, -0.09,-0.01,-0.01
-9.05,0.10,0.84, -0.10,-0.00,-0.02
-9.09,0.09,0.82, -0.10,0.01,-0.02
-9.11,0.07,0.81, -0.10,0.00,-0.02
-9.07,0.10,0.81, -0.11,0.00,-0.01
-9.05,0.10,0.84, -0.11,-0.00,-0.01
-9.06,0.10,0.85, -0.11,-0.01,-0.01
-9.06,0.09,0.88, -0.10,-0.00,-0.01
-9.08,0.09,0.83, -0.10,-0.00,-0.01
-9.06,0.11,0.84, -0.10,-0.00,-0.01
-9.07,0.10,0.82, -0.10,0.00,-0.01
-9.10,0.09,0.85, -0.10,0.00,-0.01
-9.08,0.11,0.85, -0.10,0.01,-0.01
-9.04,0.10,0.85, -0.10,0.01,-0.01
-9.05,0.10,0.87, -0.10,0.01,-0.01
-9.07,0.10,0.82, -0.10,0.01,-0.01
-9.09,0.09,0.81, -0.10,0.01,-0.01
-9.06,0.09,0.83, -0.10,0.02,-0.01
-9.06,0.09,0.82, -0.10,0.02,-0.01
-9.05,0.09,0.82, -0.10,0.02,-0.01
-9.09,0.09,0.80, -0.10,0.02,-0.01
-9.11,0.10,0.77, -0.10,0.01,-0.01
-9.07,0.09,0.80, -0.10,-0.01,-0.01
-9.06,0.10,0.82, -0.10,-0.01,-0.01
-9.06,0.10,0.85, -0.10,-0.00,-0.01
-9.06,0.08,0.83, -0.10,-0.00,-0.01
-9.09,0.07,0.82, -0.10,-0.00,-0.01
-9.07,0.09,0.82, -0.10,-0.00,-0.01
-9.06,0.10,0.80, -0.10,-0.00,-0.01
-9.07,0.09,0.81, -0.10,-0.01,-0.01
-9.08,0.07,0.82, -0.10,-0.01,-0.01
-9.06,0.08,0.82, -0.10,-0.01,-0.01
-9.07,0.08,0.86, -0.10,-0.00,-0.01
-9.09,0.07,0.85, -0.10,0.01,-0.01
-9.07,0.09,0.83, -0.10,0.02,-0.01
-9.07,0.09,0.86, -0.10,0.03,-0.01
-9.03,0.10,0.84, -0.10,0.04,-0.01
-9.07,0.09,0.81, -0.10,0.04,-0.01
-9.09,0.09,0.76, -0.10,0.04,-0.01
-9.07,0.10,0.78, -0.10,0.03,-0.01
-9.06,0.13,0.81, -0.10,0.03,-0.01
-9.09,0.09,0.77, -0.10,0.02,-0.01
-9.10,0.09,0.78, -0.10,0.02,-0.01
-9.09,0.09,0.79, -0.10,0.01,-0.01
-9.10,0.08,0.78, -0.10,0.01,-0.01
-9.08,0.09,0.78, -0.10,0.01,-0.01
-9.06,0.09,0.77, -0.10,0.01,-0.01
-9.06,0.11,0.79, -0.10,0.01,-0.01
-9.04,0.12,0.77, -0.10,0.02,-0.01
-9.07,0.12,0.77, -0.10,0.02,-0.01
-9.12,0.10,0.75, -0.10,0.03,-0.01
-9.11,0.10,0.75, -0.10,0.02,-0.01
-9.05,0.11,0.76, -0.10,0.01,-0.01
-9.05,0.10,0.78, -0.10,0.01,-0.01
-9.08,0.10,0.78, -0.10,0.01,-0.01
-9.09,0.08,0.79, -0.10,0.01,-0.01
-9.10,0.10,0.82, -0.10,0.01,-0.01
-9.05,0.11,0.83, -0.10,0.03,-0.01
-9.04,0.09,0.85, -0.10,0.05,-0.01
-9.04,0.10,0.78, -0.10,0.06,-0.01
-9.06,0.11,0.74, -0.10,0.07,-0.01
-9.08,0.08,0.68, -0.10,0.06,-0.01
-9.11,0.08,0.68, -0.10,0.05,-0.01
-9.08,0.09,0.68, -0.10,0.03,-0.01
-9.08,0.08,0.71, -0.10,0.01,-0.01
-9.06,0.10,0.71, -0.10,-0.00,-0.01
-9.07,0.12,0.75, -0.09,-0.00,-0.01
-9.06,0.13,0.73, -0.10,-0.00,-0.01
-9.07,0.09,0.69, -0.10,-0.00,-0.01
-9.10,0.07,0.71, -0.10,-0.01,-0.01
-9.08,0.08,0.71, -0.10,-0.01,-0.01
-9.08,0.09,0.74, -0.10,-0.01,-0.01
-9.05,0.11,0.78, -0.10,0.01,-0.01
-9.08,0.08,0.75, -0.10,0.02,-0.01
-9.05,0.09,0.70, -0.10,0.03,-0.01
-9.06,0.09,0.68, -0.10,0.03,-0.01
-9.10,0.08,0.69, -0.10,0.02,-0.01
-9.09,0.08,0.68, -0.10,0.01,-0.01
-9.05,0.10,0.71, -0.10,0.02,-0.01
-9.05,0.11,0.68, -0.10,0.03,-0.01
-9.06,0.06,0.68, -0.10,0.04,-0.01
-9.06,0.08,0.63, -0.11,0.05,-0.01
-9.09,0.10,0.68, -0.11,0.05,-0.01
-9.10,0.10,0.64, -0.11,0.04,-0.01
-9.10,0.13,0.64, -0.11,0.03,-0.01
-9.08,0.10,0.68, -0.10,0.01,-0.01
-9.06,0.09,0.69, -0.10,0.00,-0.01
-9.06,0.08,0.70, -0.10,0.01,-0.01
-9.04,0.07,0.72, -0.10,0.02,-0.01
-9.05,0.09,0.72, -0.10,0.04,-0.01
-9.09,0.08,0.64, -0.10,0.06,-0.01
-9.08,0.07,0.61, -0.10,0.06,-0.00
-9.10,0.11,0.58, -0.10,0.05,-0.01
-9.08,0.11,0.58, -0.10,0.03,-0.01
-9.07,0.09,0.58, -0.10,0.01,-0.01
-9.08,0.09,0.58, -0.10,0.00,-0.01
-9.11,0.10,0.58, -0.10,-0.01,-0.01
-9.08,0.06,0.62, -0.10,-0.02,-0.01
-9.09,0.07,0.65, -0.10,-0.03,-0.01
-9.08,0.10,0.64, -0.10,-0.03,-0.01
-9.05,0.10,0.67, -0.10,-0.02,-0.01
-9.06,0.08,0.70, -0.10,-0.00,-0.01
-9.07,0.08,0.69, -0.10,0.01,-0.01
-9.05,0.07,0.65, -0.10,0.03,-0.01
-9.09,0.08,0.63, -0.10,0.03,-0.01
-9.09,0.10,0.60, -0.10,0.01,-0.01
-9.11,0.10,0.58, -0.10,-0.01,-0.01
-9.08,0.10,0.57, -0.10,-0.02,-0.01
-9.10,0.09,0.61, -0.10,-0.03,-0.01
-9.09,0.08,0.67, -0.10,-0.03,-0.01
-9.06,0.09,0.66, -0.10,-0.02,-0.01
-9.06,0.09,0.67, -0.10,-0.01,-0.01
-9.07,0.09,0.67, -0.10,-0.00,-0.01
-9.08,0.10,0.66, -0.10,-0.00,-0.01
-9.09,0.09,0.62, -0.10,-0.01,-0.01
-9.09,0.09,0.62, -0.10,-0.02,-0.01
-9.09,0.09,0.65, -0.10,-0.02,-0.01
-9.08,0.09,0.68, -0.10,-0.02,-0.01
-9.09,0.11,0.70, -0.10,-0.01,-0.01
-9.09,0.09,0.71, -0.10,0.00,-0.01
-9.08,0.08,0.71, -0.10,0.01,-0.01
-9.10,0.06,0.67, -0.10,0.02,-0.01
-9.07,0.10,0.65, -0.10,0.02,-0.01
-9.07,0.10,0.61, -0.10,0.01,-0.01
-9.08,0.08,0.57, -0.10,0.00,-0.02
-9.09,0.06,0.60, -0.10,0.00,-0.02
-9.08,0.06,0.66, -0.10,-0.01,-0.02
-9.08,0.10,0.67, -0.10,-0.01,-0.02
-9.07,0.08,0.67, -0.10,-0.02,-0.02
-9.06,0.06,0.65, -0.10,-0.01,-0.02
-9.07,0.05,0.70, -0.10,-0.01,-0.02
-9.07,0.06,0.68, -0.10,0.01,-0.02
-9.07,0.08,0.68, -0.10,0.02,-0.02
-9.05,0.09,0.65, -0.10,0.03,-0.02
-9.08,0.08,0.62, -0.10,0.02,-0.02
-9.12,0.06,0.63, -0.10,0.00,-0.02
-9.10,0.06,0.64, -0.10,-0.01,-0.02
-9.09,0.06,0.66, -0.10,-0.03,-0.01
-9.06,0.06,0.69, -0.10,-0.02,-0.01
-9.07,0.06,0.71, -0.10,-0.01,-0.01
-9.06,0.06,0.69, -0.10,0.01,-0.01
-9.05,0.07,0.67, -0.10,0.02,-0.02
-9.09,0.05,0.63, -0.10,0.03,-0.02
-9.10,0.07,0.61, -0.10,0.02,-0.02
-9.09,0.04,0.61, -0.10,0.00,-0.02
-9.09,0.04,0.61, -0.10,-0.01,-0.02
-9.08,0.06,0.62, -0.10,-0.02,-0.01
-9.05,0.05,0.65, -0.10,-0.02,-0.01
-9.07,0.07,0.67, -0.10,-0.01,-0.01
-9.11,0.06,0.67, -0.10,-0.01,-0.01
-9.10,0.04,0.68, -0.10,0.00,-0.01
-9.04,0.06,0.70, -0.10,0.01,-0.01
-9.04,0.05,0.69, -0.10,0.02,-0.01
-9.05,0.05,0.68, -0.10,0.03,-0.01
-9.10,0.03,0.65, -0.10,0.04,-0.01
-9.07,0.04,0.62, -0.10,0.04,-0.01
-9.07,0.07,0.58, -0.10,0.02,-0.01
-9.10,0.04,0.58, -0.10,0.00,-0.01
-9.10,0.06,0.59, -0.10,-0.02,-0.01
-9.08,0.05,0.64, -0.10,-0.03,-0.00
-9.07,0.06,0.64, -0.10,-0.03,-0.01
-9.09,0.06,0.66, -0.10,-0.03,-0.01
-9.08,0.04,0.66, -0.10,-0.03,-0.01
-9.06,0.06,0.68, -0.10,-0.02,-0.01
-9.06,0.05,0.66, -0.10,-0.00,-0.01
-9.08,0.05,0.65, -0.10,0.00,-0.01
-9.09,0.06,0.64, -0.10,0.00,-0.01
-9.06,0.08,0.63, -0.10,0.00,-0.01
-9.06,0.06,0.64, -0.10,-0.00,-0.01
-9.11,0.03,0.61, -0.10,-0.01,-0.01
-9.10,0.06,0.64, -0.10,-0.03,-0.01
-9.11,0.04,0.64, -0.10,-0.04,-0.01
-9.06,0.05,0.66, -0.10,-0.04,-0.01
-9.05,0.06,0.66, -0.10,-0.03,-0.01
-9.05,0.07,0.70, -0.10,-0.02,-0.01
-9.06,0.09,0.68, -0.10,-0.01,-0.01
-9.10,0.06,0.68, -0.10,0.00,-0.01
-9.09,0.05,0.67, -0.10,-0.00,-0.01
-9.09,0.06,0.67, -0.10,-0.01,-0.01
-9.09,0.06,0.67, -0.10,-0.02,-0.01
-9.07,0.07,0.69, -0.10,-0.03,-0.01
-9.05,0.06,0.67, -0.10,-0.02,-0.01
-9.08,0.05,0.69, -0.10,-0.01,-0.01
-9.11,0.05,0.67, -0.11,-0.01,-0.01
-9.08,0.06,0.66, -0.11,-0.02,-0.01
-9.08,0.05,0.64, -0.10,-0.03,-0.01
-9.10,0.07,0.66, -0.10,-0.04,-0.01
-9.08,0.03,0.71, -0.10,-0.04,-0.01
-9.05,0.05,0.72, -0.10,-0.03,-0.01
-9.06,0.06,0.74, -0.10,-0.02,-0.01
-9.07,0.07,0.74, -0.10,-0.01,-0.01
-9.08,0.07,0.71, -0.10,-0.01,-0.01
-9.09,0.03,0.70, -0.10,-0.01,-0.01
-9.10,0.04,0.70, -0.10,-0.01,-0.01
-9.07,0.05,0.73, -0.10,-0.02,-0.01
-9.09,0.04,0.71, -0.10,-0.02,-0.01
-9.07,0.04,0.72, -0.10,-0.02,-0.01
-9.07,0.05,0.74, -0.10,-0.02,-0.01
-9.08,0.05,0.74, -0.10,-0.01,-0.01
-9.06,0.04,0.77, -0.10,0.00,-0.01
-9.05,0.06,0.74, -0.10,0.00,-0.01
-9.10,0.04,0.68, -0.10,-0.00,-0.01
-9.11,0.02,0.70, -0.10,-0.01,-0.01
-9.09,0.04,0.75, -0.10,-0.02,-0.01
-9.07,0.05,0.73, -0.10,-0.03,-0.01
-9.08,0.04,0.76, -0.10,-0.03,-0.01
-9.08,0.03,0.78, -0.10,-0.02,-0.02
-9.06,0.06,0.74, -0.09,-0.01,-0.02
-9.08,0.03,0.74, -0.10,-0.00,-0.01
-9.07,0.00,0.75, -0.10,-0.00,-0.01
-9.08,0.04,0.77, -0.10,0.00,-0.01
-9.06,0.06,0.78, -0.10,0.01,-0.01
-9.08,0.04,0.77, -0.10,0.03,-0.01
-9.07,0.04,0.78, -0.10,0.04,-0.01
-9.06,0.03,0.74, -0.10,0.05,-0.01
-9.06,0.03,0.70, -0.10,0.05,-0.01
-9.06,0.04,0.68, -0.10,0.04,-0.01
-9.11,0.03,0.70, -0.10,0.03,-0.01
-9.12,0.02,0.73, -0.10,0.03,-0.01
-9.08,0.02,0.75, -0.10,0.04,-0.01
-9.04,0.03,0.75, -0.10,0.06,-0.01
-9.04,0.06,0.70, -0.09,0.08,-0.01
-9.09,0.06,0.56, -0.08,0.07,-0.03
-9.19,0.04,0.52, -0.06,0.01,-0.04
-9.18,0.09,0.43, -0.05,-0.06,-0.04
-9.07,0.04,0.62, -0.04,-0.08,-0.05
-9.04,-0.01,0.68, -0.03,-0.06,-0.05
-9.08,-0.04,0.66, -0.01,0.01,-0.05
-9.09,-0.05,0.55, 0.00,0.08,-0.03
-9.09,-0.09,0.55, 0.01,0.11,-0.01
-9.15,-0.07,0.59, 0.01,0.08,0.01
-9.23,-0.13,0.60, 0.02,-0.01,0.01
-9.25,-0.03,0.67, 0.02,-0.12,0.01
-9.17,0.06,0.78, 0.02,-0.22,0.01
-9.10,0.05,0.87, 0.02,-0.27,0.01
-9.24,0.03,1.01, 0.02,-0.29,0.01
-9.43,-0.04,1.09, 0.01,-0.26,0.02
-9.25,-0.06,1.16, 0.00,-0.20,0.02
-9.38,-0.15,1.15, -0.01,-0.14,0.00
-9.40,-0.04,1.07, -0.03,-0.08,-0.04
-9.35,0.11,0.96, -0.05,-0.02,-0.10
-9.34,0.12,0.84, -0.08,0.02,-0.16
-9.37,0.09,0.75, -0.09,0.02,-0.22
-9.37,0.04,0.71, -0.10,-0.01,-0.26
-9.23,-0.21,0.78, -0.10,-0.05,-0.29
-9.13,-0.23,0.81, -0.08,-0.10,-0.34
-9.17,-0.27,0.91, -0.06,-0.15,-0.38
-9.46,-0.26,0.98, -0.04,-0.19,-0.40
-9.86,-0.25,1.02, -0.05,-0.20,-0.41
-10.05,-0.25,1.08, -0.07,-0.16,-0.40
-9.98,-0.29,1.13, -0.11,-0.08,-0.40
-9.97,-0.35,1.12, -0.14,0.01,-0.38
-10.01,-0.35,1.08, -0.16,0.10,-0.36
-10.12,-0.42,0.97, -0.18,0.16,-0.32
-10.11,-0.54,1.03, -0.20,0.21,-0.28
-10.22,-0.75,1.01, -0.21,0.21,-0.24
-10.21,-0.85,0.98, -0.21,0.19,-0.21
-10.10,-0.86,0.96, -0.22,0.18,-0.16
-9.94,-0.83,0.92, -0.22,0.19,-0.12
-9.79,-0.78,0.86, -0.22,0.21,-0.08
-9.75,-0.73,0.80, -0.22,0.25,-0.03
-9.71,-0.70,0.80, -0.22,0.29,0.01
-9.57,-0.68,0.75, -0.22,0.32,0.05
-9.40,-0.64,0.74, -0.22,0.34,0.08
-9.19,-0.63,0.73, -0.22,0.34,0.10
-9.04,-0.67,0.76, -0.21,0.31,0.10
-8.92,-0.64,0.70, -0.20,0.24,0.06
-8.83,-0.57,0.66, -0.19,0.16,0.01
-8.95,-0.48,0.57, -0.19,0.07,-0.03
-9.01,-0.52,0.62, -0.18,0.00,-0.02
-8.95,-0.50,0.64, -0.16,-0.03,0.00
-8.90,-0.45,0.64, -0.14,-0.03,0.02
-8.96,-0.41,0.64, -0.14,-0.01,0.03
-8.96,-0.40,0.63, -0.15,0.05,0.04
-8.93,-0.44,0.62, -0.16,0.10,0.04
-8.95,-0.50,0.62, -0.18,0.16,0.04
-9.05,-0.53,0.58, -0.20,0.20,0.05
-9.10,-0.47,0.48, -0.21,0.25,0.06
-9.08,-0.41,0.42, -0.22,0.29,0.08
-8.95,-0.36,0.37, -0.23,0.31,0.08
-8.88,-0.39,0.26, -0.24,0.31,0.07
-8.94,-0.47,0.25, -0.24,0.27,0.06
-8.93,-0.51,0.22, -0.24,0.21,0.03
-8.95,-0.52,0.23, -0.24,0.16,0.01
-8.99,-0.53,0.23, -0.23,0.14,0.01
-9.00,-0.50,0.22, -0.22,0.14,0.02
-8.96,-0.52,0.22, -0.21,0.16,0.02
-8.87,-0.44,0.21, -0.21,0.18,0.01
-8.74,-0.41,0.21, -0.21,0.18,-0.02
-8.80,-0.43,0.20, -0.20,0.15,-0.06
-8.99,-0.49,0.20, -0.18,0.10,-0.07
-9.05,-0.48,0.16, -0.17,0.06,-0.06
-8.96,-0.46,0.11, -0.15,0.04,-0.02
-8.99,-0.49,0.11, -0.14,0.04,0.00
-9.05,-0.55,0.11, -0.13,0.06,0.02
-8.97,-0.57,0.11, -0.12,0.09,0.04
-8.86,-0.57,0.13, -0.12,0.10,0.04
-8.86,-0.53,0.02, -0.12,0.11,0.03
-8.85,-0.44,-0.10, -0.12,0.12,0.03
-8.72,-0.41,-0.10, -0.13,0.13,0.04
-8.76,-0.50,-0.15, -0.13,0.14,0.05
-8.84,-0.53,-0.12, -0.13,0.14,0.04
-8.90,-0.51,-0.16, -0.14,0.13,0.02
-8.89,-0.44,-0.23, -0.16,0.11,0.01
-8.88,-0.45,-0.28, -0.17,0.11,0.01
-8.78,-0.44,-0.24, -0.19,0.11,0.01
-8.77,-0.51,-0.19, -0.19,0.11,0.00
-8.87,-0.59,-0.19, -0.18,0.11,0.00
-8.83,-0.57,-0.22, -0.17,0.11,-0.00
-8.73,-0.50,-0.24, -0.17,0.11,-0.02
-8.71,-0.50,-0.26, -0.16,0.10,-0.05
-8.83,-0.56,-0.24, -0.15,0.09,-0.08
-8.91,-0.58,-0.23, -0.14,0.07,-0.09
-8.96,-0.58,-0.23, -0.12,0.05,-0.08
-9.05,-0.60,-0.23, -0.09,0.04,-0.06
-9.05,-0.56,-0.22, -0.08,0.02,-0.06
-9.05,-0.52,-0.21, -0.08,0.01,-0.07
-9.04,-0.56,-0.16, -0.08,0.02,-0.08
-9.03,-0.58,-0.16, -0.07,0.04,-0.09
-8.97,-0.55,-0.20, -0.07,0.08,-0.09
-8.91,-0.51,-0.20, -0.06,0.11,-0.07
-8.94,-0.54,-0.30, -0.05,0.13,-0.06
-8.95,-0.59,-0.30, -0.04,0.12,-0.05
-8.99,-0.60,-0.30, -0.04,0.11,-0.05
-8.96,-0.60,-0.33, -0.05,0.10,-0.06
-8.79,-0.59,-0.36, -0.06,0.12,-0.07
-8.74,-0.59,-0.40, -0.06,0.14,-0.08
-8.85,-0.71,-0.46, -0.06,0.14,-0.07
-8.87,-0.69,-0.50, -0.05,0.12,-0.04
-8.84,-0.61,-0.51, -0.04,0.08,-0.02
-8.86,-0.52,-0.57, -0.05,0.03,-0.02
-8.83,-0.45,-0.61, -0.07,-0.00,-0.04
-8.79,-0.43,-0.62, -0.10,-0.01,-0.06
-8.78,-0.49,-0.54, -0.13,0.01,-0.08
-8.93,-0.61,-0.48, -0.14,0.03,-0.08
-8.98,-0.68,-0.47, -0.15,0.05,-0.07
-8.99,-0.70,-0.49, -0.16,0.07,-0.05
-8.98,-0.71,-0.49, -0.16,0.08,-0.02
-8.89,-0.67,-0.56, -0.16,0.08,-0.01
-8.81,-0.60,-0.60, -0.17,0.07,-0.00
-8.69,-0.62,-0.61, -0.18,0.07,0.00
-8.64,-0.70,-0.59, -0.17,0.08,0.01
-8.67,-0.79,-0.57, -0.16,0.09,0.04
-8.74,-0.78,-0.55, -0.14,0.08,0.06
-8.94,-0.76,-0.55, -0.13,0.06,0.08
-8.93,-0.73,-0.55, -0.12,0.03,0.09
-8.77,-0.66,-0.56, -0.12,0.02,0.09
-8.70,-0.64,-0.51, -0.12,0.03,0.08
-8.72,-0.67,-0.49, -0.10,0.05,0.07
-8.80,-0.71,-0.50, -0.09,0.07,0.07
-8.82,-0.69,-0.53, -0.07,0.08,0.08
-8.83,-0.65,-0.57, -0.06,0.08,0.08
-8.76,-0.58,-0.61, -0.06,0.08,0.08
-8.71,-0.48,-0.64, -0.07,0.08,0.06
-8.68,-0.42,-0.67, -0.08,0.08,0.03
-8.72,-0.42,-0.72, -0.09,0.06,0.00
-8.77,-0.42,-0.71, -0.09,0.05,0.00
-8.77,-0.40,-0.70, -0.09,0.02,0.01
-8.83,-0.45,-0.69, -0.09,0.00,0.00
-8.92,-0.56,-0.70, -0.09,-0.02,-0.01
-8.93,-0.62,-0.66, -0.11,-0.03,-0.03
-8.86,-0.58,-0.67, -0.12,-0.01,-0.05
-8.78,-0.56,-0.76, -0.13,0.02,-0.05
-8.72,-0.55,-0.81, -0.13,0.04,-0.05
-8.75,-0.53,-0.90, -0.13,0.04,-0.05
-8.82,-0.60,-0.88, -0.12,0.02,-0.03
-8.86,-0.66,-0.83, -0.10,-0.01,-0.01
-8.87,-0.67,-0.79, -0.09,-0.05,-0.00
-8.91,-0.65,-0.75, -0.09,-0.06,-0.00
-8.92,-0.59,-0.76, -0.09,-0.06,-0.00
-8.96,-0.58,-0.71, -0.08,-0.04,0.00
-9.03,-0.54,-0.69, -0.08,-0.04,0.00
-9.09,-0.53,-0.61, -0.08,-0.04,0.01
-9.17,-0.54,-0.57, -0.08,-0.05,0.01
-9.21,-0.54,-0.55, -0.09,-0.05,0.01
-9.18,-0.53,-0.57, -0.09,-0.04,0.01
-9.13,-0.55,-0.52, -0.09,-0.03,0.01
-9.01,-0.59,-0.50, -0.09,-0.03,0.00
-8.94,-0.53,-0.49, -0.08,-0.04,-0.02
-8.91,-0.49,-0.56, -0.07,-0.06,-0.03
-8.95,-0.49,-0.59, -0.07,-0.08,-0.04
-8.95,-0.52,-0.59, -0.06,-0.10,-0.04
-9.01,-0.55,-0.51, -0.06,-0.12,-0.02
-8.89,-0.44,-0.37, -0.06,-0.13,-0.01
-8.82,-0.40,-0.13, -0.05,-0.16,-0.03
-9.04,-0.45,0.17, -0.03,-0.20,-0.05
-9.20,-0.53,0.39, -0.00,-0.23,-0.05
-9.26,-0.56,0.36, 0.02,-0.23,-0.04
-9.08,-0.54,0.32, 0.03,-0.16,-0.03
-8.83,-0.44,0.21, 0.03,-0.06,-0.03
-8.59,-0.39,0.10, 0.02,0.04,-0.04
-8.45,-0.31,-0.05, 0.02,0.08,-0.06
-8.43,-0.34,-0.25, 0.01,0.06,-0.07
-8.45,-0.43,-0.32, 0.02,-0.01,-0.08
-8.58,-0.57,-0.31, 0.05,-0.09,-0.07
-8.65,-0.66,-0.28, 0.08,-0.17,-0.05
-8.75,-0.74,-0.22, 0.11,-0.22,-0.02
-8.77,-0.75,-0.11, 0.12,-0.24,-0.01
-8.78,-0.72,-0.11, 0.11,-0.23,-0.02
-8.92,-0.75,-0.11, 0.09,-0.20,-0.03
-9.02,-0.75,-0.10, 0.07,-0.15,-0.02
-9.06,-0.69,-0.12, 0.05,-0.09,-0.00
-9.02,-0.65,-0.10, 0.04,-0.04,0.01
-9.09,-0.64,-0.12, 0.04,-0.02,0.03
-9.24,-0.74,-0.14, 0.05,-0.04,0.06
-9.35,-0.80,-0.16, 0.05,-0.07,0.08
-9.28,-0.79,-0.17, 0.06,-0.07,0.10
-9.21,-0.71,-0.18, 0.07,-0.04,0.11
-9.17,-0.65,-0.19, 0.07,0.00,0.12
-9.15,-0.57,-0.19, 0.08,0.04,0.12
-9.09,-0.48,-0.19, 0.09,0.04,0.13
-9.10,-0.47,-0.27, 0.09,0.02,0.12
-9.09,-0.51,-0.31, 0.08,-0.02,0.10
-9.09,-0.57,-0.30, 0.08,-0.06,0.08
-9.08,-0.57,-0.29, 0.08,-0.07,0.07
-9.10,-0.62,-0.24, 0.09,-0.07,0.07
-9.13,-0.60,-0.24, 0.09,-0.06,0.07
-9.10,-0.52,-0.28, 0.07,-0.06,0.06
-9.08,-0.44,-0.23, 0.05,-0.05,0.05
-9.05,-0.40,-0.12, 0.02,-0.06,0.03
-9.03,-0.40,-0.07, 0.01,-0.07,-0.00
-9.04,-0.51,-0.06, -0.00,-0.08,-0.02
-9.13,-0.58,-0.09, -0.02,-0.06,-0.02
-9.22,-0.58,-0.11, -0.05,-0.01,-0.00
-9.22,-0.57,-0.15, -0.08,0.05,0.01
-9.24,-0.58,-0.17, -0.11,0.09,0.01
-9.27,-0.58,-0.22, -0.12,0.11,0.02
-9.26,-0.54,-0.26, -0.14,0.10,0.04
-9.21,-0.47,-0.23, -0.15,0.06,0.03
-9.25,-0.48,-0.19, -0.15,0.02,0.03
-9.38,-0.57,-0.15, -0.14,-0.01,0.04
-9.39,-0.66,-0.13, -0.13,0.00,0.06
-9.24,-0.62,-0.14, -0.13,0.04,0.06
-9.11,-0.56,-0.10, -0.13,0.07,0.03
-9.10,-0.52,-0.02, -0.13,0.07,-0.01
-9.28,-0.53,0.03, -0.12,0.05,-0.03
-9.34,-0.53,-0.05, -0.10,0.02,-0.02
-9.16,-0.45,-0.18, -0.08,0.03,-0.01
-9.01,-0.37,-0.28, -0.07,0.06,0.00
-8.99,-0.37,-0.32, -0.08,0.08,-0.00
-8.98,-0.36,-0.28, -0.09,0.09,-0.01
-9.02,-0.39,-0.24, -0.09,0.09,-0.02
-9.07,-0.38,-0.32, -0.09,0.08,-0.03
-9.15,-0.37,-0.41, -0.10,0.07,-0.03
-9.15,-0.41,-0.38, -0.11,0.07,-0.03
-9.11,-0.44,-0.33, -0.12,0.08,-0.02
-9.01,-0.44,-0.29, -0.13,0.10,-0.01
-8.94,-0.40,-0.26, -0.14,0.11,0.00
-9.00,-0.39,-0.22, -0.15,0.10,0.00
-9.02,-0.36,-0.18, -0.16,0.09,-0.00
-9.07,-0.33,-0.32, -0.18,0.08,-0.02
-9.10,-0.30,-0.43, -0.20,0.08,-0.02
-9.08,-0.31,-0.44, -0.24,0.11,0.01
-8.99,-0.38,-0.43, -0.26,0.14,0.05
-8.91,-0.43,-0.42, -0.26,0.16,0.08
-8.89,-0.49,-0.43, -0.25,0.18,0.09
-8.94,-0.57,-0.57, -0.24,0.18,0.09
-8.94,-0.62,-0.75, -0.22,0.19,0.08
-8.88,-0.61,-0.86, -0.21,0.19,0.08
-8.90,-0.56,-0.90, -0.19,0.17,0.07
-9.07,-0.51,-0.87, -0.17,0.15,0.08
-9.21,-0.45,-0.74, -0.15,0.10,0.09
-9.26,-0.41,-0.65, -0.13,0.04,0.08
-9.26,-0.38,-0.65, -0.12,-0.01,0.05
-9.16,-0.32,-0.84, -0.13,-0.02,0.03
-9.03,-0.27,-0.97, -0.15,0.01,0.01
-8.98,-0.27,-0.99, -0.17,0.06,0.00
-8.99,-0.32,-0.97, -0.19,0.13,0.00
-9.06,-0.39,-1.02, -0.20,0.20,0.01
-9.04,-0.49,-0.99, -0.20,0.26,0.01
-8.94,-0.49,-0.95, -0.20,0.29,0.01
-8.88,-0.46,-0.98, -0.19,0.27,-0.01
-8.87,-0.43,-0.98, -0.18,0.22,-0.03
-8.90,-0.36,-1.06, -0.17,0.15,-0.05
-8.99,-0.40,-1.06, -0.16,0.09,-0.05
-8.95,-0.40,-1.06, -0.17,0.05,-0.04
-8.87,-0.41,-0.97, -0.17,0.04,-0.03
-8.84,-0.40,-0.89, -0.17,0.06,-0.03
-8.79,-0.40,-0.86, -0.16,0.10,-0.04
-8.84,-0.42,-0.86, -0.15,0.15,-0.06
-8.91,-0.42,-0.89, -0.14,0.20,-0.06
-9.04,-0.40,-0.89, -0.14,0.24,-0.04
-9.07,-0.45,-0.91, -0.13,0.27,-0.03
-9.09,-0.51,-0.94, -0.12,0.27,-0.01
-8.98,-0.50,-0.96, -0.11,0.25,-0.01
-8.79,-0.44,-0.97, -0.09,0.23,-0.02
-8.72,-0.42,-1.01, -0.06,0.21,-0.03
-8.91,-0.47,-1.09, -0.05,0.20,-0.03
-9.02,-0.54,-1.08, -0.04,0.20,-0.03
-9.11,-0.51,-1.10, -0.03,0.22,-0.02
-9.21,-0.45,-1.18, -0.04,0.26,0.00
-9.10,-0.38,-1.15, -0.06,0.33,0.02
-8.75,-0.24,-1.21, -0.08,0.39,0.00
-8.53,-0.19,-1.44, -0.09,0.42,-0.04
-8.64,-0.19,-1.62, -0.11,0.40,-0.06
-8.88,-0.27,-1.61, -0.12,0.34,-0.07
-9.09,-0.37,-1.59, -0.13,0.27,-0.07
-9.10,-0.42,-1.43, -0.14,0.24,-0.07
-8.92,-0.40,-1.37, -0.14,0.27,-0.07
-8.91,-0.35,-1.38, -0.15,0.32,-0.10
-9.05,-0.35,-1.50, -0.17,0.36,-0.11
-9.03,-0.38,-1.57, -0.19,0.43,-0.09
-9.01,-0.52,-1.56, -0.19,0.52,-0.06
-8.95,-0.63,-1.56, -0.17,0.62,-0.02
-8.80,-0.61,-1.59, -0.16,0.70,-0.00
-8.67,-0.38,-1.79, -0.14,0.75,-0.01
-8.84,-0.31,-2.06, -0.15,0.76,-0.02
-8.98,-0.38,-2.22, -0.16,0.73,-0.02
-8.88,-0.43,-2.26, -0.17,0.69,-0.00
-8.80,-0.48,-2.29, -0.17,0.67,0.01
-8.83,-0.45,-2.35, -0.17,0.67,0.02
-8.79,-0.42,-2.38, -0.18,0.73,0.03
-8.70,-0.43,-2.43, -0.18,0.79,0.03
-8.75,-0.49,-2.55, -0.19,0.86,0.03
-8.59,-0.39,-2.67, -0.20,0.91,0.02
-8.37,-0.28,-2.87, -0.21,0.92,0.01
-8.41,-0.34,-3.09, -0.20,0.90,0.01
-8.42,-0.33,-3.18, -0.20,0.85,0.01
-8.44,-0.32,-3.34, -0.19,0.81,0.02
-8.28,-0.28,-3.39, -0.19,0.77,0.02
-8.15,-0.27,-3.48, -0.19,0.75,0.02
-8.30,-0.32,-3.58, -0.18,0.73,0.02
-8.24,-0.32,-3.60, -0.18,0.71,0.04
-8.19,-0.33,-3.70, -0.16,0.67,0.04
-8.30,-0.38,-3.80, -0.15,0.64,0.04
-8.36,-0.38,-3.85, -0.14,0.62,0.04
-8.33,-0.32,-3.94, -0.14,0.64,0.05
-8.16,-0.27,-3.93, -0.16,0.71,0.06
-8.06,-0.24,-4.01, -0.18,0.79,0.06
-7.90,-0.17,-4.10, -0.19,0.83,0.03
-7.86,-0.21,-4.32, -0.19,0.81,0.00
-7.84,-0.21,-4.46, -0.18,0.74,-0.00
-7.97,-0.15,-4.55, -0.17,0.63,0.00
-8.12,-0.23,-4.60, -0.17,0.55,0.02
-8.07,-0.29,-4.56, -0.16,0.52,0.04
-7.84,-0.33,-4.56, -0.15,0.56,0.07
-7.45,-0.14,-4.66, -0.15,0.60,0.05
-7.46,-0.02,-4.87, -0.16,0.60,0.02
-7.68,-0.05,-5.02, -0.17,0.58,0.03
-7.58,-0.14,-4.99, -0.17,0.56,0.04
-7.45,-0.18,-4.98, -0.17,0.57,0.05
-7.40,-0.20,-4.97, -0.17,0.61,0.05
-7.33,-0.20,-5.07, -0.16,0.65,0.04
-7.26,-0.12,-5.22, -0.16,0.67,0.02
-7.12,-0.05,-5.32, -0.17,0.65,0.01
-7.07,-0.08,-5.46, -0.16,0.60,-0.01
-7.24,-0.17,-5.51, -0.15,0.54,-0.01
-7.29,-0.23,-5.52, -0.14,0.49,0.00
-7.23,-0.22,-5.53, -0.13,0.47,0.00
-7.26,-0.23,-5.59, -0.12,0.47,0.00
-7.08,-0.20,-5.56, -0.12,0.51,0.00
-6.75,-0.10,-5.64, -0.11,0.52,-0.02
-6.83,-0.11,-5.81, -0.10,0.49,-0.05
-7.02,-0.21,-5.83, -0.09,0.44,-0.04
-7.13,-0.21,-5.84, -0.08,0.38,-0.02
-7.20,-0.18,-5.86, -0.07,0.36,0.01
-7.12,-0.15,-5.82, -0.07,0.37,0.02
-6.95,-0.15,-5.84, -0.08,0.40,0.02
-6.92,-0.08,-5.94, -0.09,0.42,0.00
-6.80,-0.07,-6.04, -0.09,0.40,-0.01
-6.69,-0.04,-6.19, -0.10,0.36,-0.03
-6.68,-0.04,-6.21, -0.10,0.28,-0.04
-6.79,-0.08,-6.20, -0.09,0.20,-0.03
-6.99,-0.08,-6.19, -0.09,0.15,-0.02
-6.97,-0.06,-6.16, -0.10,0.17,-0.01
-6.79,-0.11,-6.10, -0.12,0.24,-0.01
-6.66,-0.14,-6.13, -0.12,0.31,-0.04
-6.66,-0.19,-6.25, -0.12,0.33,-0.06
-6.58,-0.09,-6.36, -0.11,0.30,-0.06
-6.49,0.00,-6.42, -0.11,0.22,-0.05
-6.55,-0.06,-6.47, -0.11,0.14,-0.04
-6.64,-0.04,-6.41, -0.12,0.09,-0.02
-6.67,-0.09,-6.34, -0.13,0.09,-0.01
-6.72,-0.20,-6.27, -0.13,0.13,0.00
-6.64,-0.29,-6.26, -0.13,0.17,-0.00
-6.52,-0.24,-6.29, -0.11,0.19,-0.01
-6.48,-0.14,-6.44, -0.10,0.16,-0.01
-6.44,-0.07,-6.47, -0.10,0.09,-0.01
-6.53,-0.13,-6.46, -0.10,0.01,-0.00
-6.47,-0.14,-6.39, -0.09,-0.03,0.01
-6.46,-0.15,-6.34, -0.09,-0.02,0.01
-6.50,-0.15,-6.34, -0.09,0.01,0.01
-6.54,-0.16,-6.34, -0.08,0.05,-0.00
-6.55,-0.13,-6.35, -0.08,0.06,-0.01
-6.50,-0.09,-6.39, -0.08,0.06,-0.01
-6.47,-0.02,-6.46, -0.08,0.03,-0.01
-6.50,-0.02,-6.44, -0.09,-0.00,-0.01
-6.66,-0.07,-6.45, -0.09,-0.02,-0.01
-6.62,-0.07,-6.41, -0.10,-0.01,-0.00
-6.60,-0.15,-6.37, -0.11,0.01,-0.00
-6.55,-0.16,-6.39, -0.11,0.04,-0.02
-6.53,-0.13,-6.41, -0.11,0.06,-0.03
-6.44,-0.15,-6.45, -0.10,0.06,-0.04
-6.49,-0.10,-6.49, -0.10,0.03,-0.06
-6.65,-0.10,-6.52, -0.10,0.01,-0.05
-6.64,-0.09,-6.49, -0.11,-0.00,-0.03
-6.62,-0.13,-6.50, -0.11,0.01,-0.01
-6.60,-0.13,-6.44, -0.12,0.04,0.01
-6.52,-0.15,-6.46, -0.12,0.09,0.02
-6.49,-0.22,-6.43, -0.11,0.11,0.01
-6.47,-0.27,-6.47, -0.10,0.10,-0.00
-6.51,-0.21,-6.53, -0.09,0.06,-0.02
-6.66,-0.15,-6.58, -0.09,0.02,-0.01
-6.71,-0.11,-6.55, -0.09,0.00,0.01
-6.65,-0.07,-6.51, -0.10,0.01,0.02
-6.65,-0.10,-6.47, -0.11,0.06,0.04
-6.62,-0.14,-6.44, -0.11,0.11,0.04
-6.46,-0.22,-6.44, -0.11,0.15,0.03
-6.45,-0.24,-6.52, -0.10,0.14,0.02
-6.39,-0.21,-6.57, -0.09,0.10,0.00
-6.40,-0.12,-6.62, -0.09,0.05,-0.01
-6.42,-0.08,-6.59, -0.09,0.02,-0.01
-6.38,-0.07,-6.55, -0.10,0.03,0.00
-6.33,-0.05,-6.51, -0.10,0.07,0.01
-6.41,-0.11,-6.54, -0.11,0.12,0.01
-6.42,-0.16,-6.61, -0.11,0.14,0.01
-6.35,-0.15,-6.61, -0.11,0.12,0.01
-6.36,-0.10,-6.63, -0.11,0.07,0.00
-6.36,-0.07,-6.62, -0.11,0.03,-0.00
-6.30,-0.08,-6.60, -0.11,0.01,-0.01
-6.34,-0.10,-6.55, -0.11,0.02,-0.01
-6.29,-0.11,-6.49, -0.12,0.04,-0.02
-6.26,-0.12,-6.50, -0.11,0.05,-0.03
-6.35,-0.15,-6.52, -0.11,0.05,-0.03
-6.43,-0.11,-6.59, -0.10,0.03,-0.02
-6.43,-0.12,-6.61, -0.11,0.02,-0.01
-6.35,-0.12,-6.59, -0.11,0.02,-0.00
-6.36,-0.06,-6.57, -0.11,0.03,0.00
-6.33,0.04,-6.61, -0.12,0.05,0.00
-6.28,0.04,-6.57, -0.13,0.09,-0.00
-6.27,-0.05,-6.57, -0.14,0.12,-0.01
-6.35,-0.14,-6.64, -0.14,0.14,-0.01
-6.32,-0.11,-6.67, -0.14,0.15,-0.01
-6.29,-0.07,-6.67, -0.14,0.15,-0.01
-6.34,-0.08,-6.72, -0.14,0.13,-0.01
-6.36,-0.07,-6.75, -0.14,0.11,-0.00
-6.32,-0.08,-6.73, -0.14,0.09,0.01
-6.28,-0.07,-6.75, -0.14,0.08,0.00
-6.29,-0.11,-6.75, -0.13,0.08,0.00
-6.28,-0.11,-6.73, -0.13,0.09,0.00
-6.27,-0.09,-6.76, -0.12,0.09,-0.01
-6.29,-0.06,-6.78, -0.12,0.09,-0.01
-6.29,-0.01,-6.80, -0.12,0.09,-0.01
-6.25,-0.03,-6.85, -0.11,0.10,-0.02
-6.23,-0.03,-6.84, -0.11,0.11,-0.02
-6.16,-0.05,-6.84, -0.11,0.13,-0.02
-6.16,-0.02,-6.83, -0.11,0.14,-0.03
-6.20,-0.01,-6.84, -0.12,0.13,-0.02
-6.25,-0.05,-6.82, -0.12,0.12,-0.02
-6.24,0.01,-6.87, -0.12,0.11,-0.02
-6.18,0.00,-6.85, -0.13,0.11,-0.01
-6.07,0.02,-6.84, -0.12,0.10,-0.02
-6.05,-0.03,-6.80, -0.12,0.11,-0.03
-6.10,-0.09,-6.81, -0.11,0.11,-0.03
-6.15,-0.10,-6.87, -0.10,0.13,-0.03
-6.11,-0.11,-6.90, -0.09,0.14,-0.02
-6.07,-0.08,-6.90, -0.09,0.15,-0.02
-6.05,-0.07,-6.94, -0.09,0.16,-0.01
-5.96,-0.04,-6.92, -0.08,0.16,-0.02
-5.95,-0.03,-6.98, -0.08,0.17,-0.04
-6.05,-0.05,-7.00, -0.08,0.18,-0.05
-6.08,-0.05,-7.02, -0.09,0.17,-0.04
-6.06,-0.05,-7.07, -0.09,0.16,-0.03
-6.02,-0.03,-7.09, -0.09,0.15,-0.02
-5.95,-0.02,-7.07, -0.09,0.13,-0.01
-5.90,-0.01,-7.11, -0.10,0.12,-0.01
-5.88,0.00,-7.08, -0.10,0.11,-0.02
-5.83,-0.04,-7.02, -0.10,0.12,-0.04
-5.77,-0.06,-7.06, -0.10,0.13,-0.06
-5.78,-0.11,-7.07, -0.09,0.13,-0.08
-5.84,-0.15,-7.09, -0.08,0.13,-0.09
-5.86,-0.18,-7.10, -0.08,0.14,-0.09
-5.92,-0.19,-7.14, -0.07,0.14,-0.09
-5.92,-0.17,-7.14, -0.07,0.15,-0.08
-5.91,-0.17,-7.15, -0.07,0.16,-0.06
-5.84,-0.17,-7.17, -0.07,0.18,-0.06
-5.82,-0.16,-7.19, -0.07,0.19,-0.06
-5.82,-0.14,-7.24, -0.08,0.20,-0.06
-5.77,-0.15,-7.25, -0.08,0.19,-0.05
-5.75,-0.16,-7.28, -0.09,0.16,-0.04
-5.74,-0.17,-7.29, -0.09,0.13,-0.03
-5.77,-0.17,-7.29, -0.10,0.10,-0.02
-5.80,-0.16,-7.32, -0.10,0.08,-0.01
-5.77,-0.17,-7.31, -0.11,0.07,-0.01
-5.78,-0.18,-7.30, -0.11,0.06,-0.00
-5.76,-0.19,-7.30, -0.12,0.06,-0.01
-5.73,-0.16,-7.33, -0.12,0.06,-0.01
-5.71,-0.12,-7.30, -0.13,0.06,-0.00
-5.65,-0.14,-7.29, -0.13,0.07,0.00
-5.62,-0.16,-7.35, -0.14,0.08,-0.00
-5.63,-0.18,-7.32, -0.14,0.08,-0.00
-5.61,-0.19,-7.30, -0.14,0.10,0.00
-5.63,-0.18,-7.30, -0.13,0.10,0.00
-5.62,-0.15,-7.34, -0.13,0.11,0.01
-5.62,-0.13,-7.32, -0.13,0.11,0.01
-5.58,-0.13,-7.35, -0.12,0.10,0.01
-5.60,-0.11,-7.39, -0.12,0.08,0.01
-5.56,-0.10,-7.38, -0.12,0.05,0.01
-5.53,-0.11,-7.37, -0.11,0.03,0.01
-5.51,-0.10,-7.35, -0.11,0.03,0.00
-5.54,-0.11,-7.33, -0.11,0.03,-0.00
-5.55,-0.13,-7.32, -0.11,0.05,-0.00
-5.55,-0.14,-7.34, -0.11,0.07,-0.01
-5.55,-0.15,-7.37, -0.11,0.09,-0.01
-5.65,-0.15,-7.41, -0.11,0.09,-0.00
-5.61,-0.10,-7.42, -0.11,0.10,-0.00
-5.53,-0.09,-7.39, -0.11,0.10,0.00
-5.45,-0.06,-7.39, -0.11,0.12,0.01
-5.39,-0.10,-7.41, -0.11,0.15,0.01
-5.36,-0.09,-7.35, -0.12,0.18,0.01
-5.39,-0.08,-7.39, -0.12,0.20,0.00
-5.43,-0.11,-7.46, -0.11,0.21,-0.01
-5.45,-0.10,-7.50, -0.11,0.20,0.00
-5.44,-0.07,-7.52, -0.11,0.18,0.01
-5.39,-0.05,-7.53, -0.12,0.17,0.01
-5.42,-0.06,-7.57, -0.12,0.16,0.01
-5.41,-0.06,-7.57, -0.12,0.16,0.01
-5.37,-0.06,-7.56, -0.11,0.16,0.00
-5.36,-0.06,-7.61, -0.11,0.15,-0.00
-5.32,-0.06,-7.64, -0.11,0.13,-0.01
-5.33,-0.03,-7.65, -0.10,0.11,-0.01
-5.39,-0.00,-7.69, -0.11,0.09,-0.01
-5.35,-0.00,-7.68, -0.11,0.09,-0.01
-5.31,-0.03,-7.62, -0.12,0.11,-0.01
-5.27,-0.03,-7.63, -0.12,0.13,-0.02
-5.23,-0.06,-7.60, -0.12,0.14,-0.02
-5.15,-0.05,-7.64, -0.12,0.14,-0.02
-5.23,-0.11,-7.71, -0.11,0.13,-0.03
-5.22,-0.13,-7.72, -0.11,0.11,-0.03
-5.23,-0.14,-7.70, -0.10,0.09,-0.03
-5.24,-0.13,-7.72, -0.09,0.09,-0.03
-5.26,-0.10,-7.77, -0.09,0.09,-0.02
-5.21,-0.06,-7.74, -0.09,0.09,-0.02
-5.15,-0.07,-7.76, -0.09,0.09,-0.02
-5.17,-0.09,-7.80, -0.08,0.06,-0.01
-5.18,-0.06,-7.83, -0.08,0.02,-0.01
-5.17,-0.07,-7.82, -0.08,-0.03,-0.00
-5.16,-0.07,-7.78, -0.08,-0.07,-0.00
-5.15,-0.07,-7.74, -0.08,-0.08,-0.01
-5.20,-0.10,-7.73, -0.08,-0.07,-0.01
-5.20,-0.10,-7.74, -0.08,-0.05,-0.02
-5.22,-0.08,-7.74, -0.08,-0.03,-0.02
-5.28,-0.09,-7.75, -0.09,-0.02,-0.02
-5.27,-0.09,-7.75, -0.09,-0.02,-0.01
-5.24,-0.09,-7.72, -0.10,-0.03,-0.00
-5.23,-0.06,-7.73, -0.10,-0.04,-0.00
-5.21,-0.07,-7.70, -0.10,-0.06,-0.00
-5.15,-0.09,-7.64, -0.10,-0.08,-0.01
-5.14,-0.13,-7.65, -0.09,-0.11,-0.01
-5.17,-0.11,-7.64, -0.09,-0.16,-0.02
-5.23,-0.08,-7.67, -0.09,-0.20,-0.01
-5.27,-0.06,-7.64, -0.09,-0.23,0.00
-5.27,-0.10,-7.59, -0.09,-0.24,0.01
-5.27,-0.13,-7.55, -0.08,-0.26,0.00
-5.33,-0.12,-7.55, -0.07,-0.30,-0.00
-5.39,-0.10,-7.54, -0.05,-0.37,-0.01
-5.45,-0.04,-7.56, -0.05,-0.47,-0.01
-5.61,-0.04,-7.54, -0.04,-0.57,0.00
-5.68,-0.11,-7.47, -0.05,-0.64,0.02
-5.61,-0.14,-7.37, -0.06,-0.67,0.03
-5.60,-0.21,-7.24, -0.05,-0.69,0.04
-5.66,-0.25,-7.23, -0.04,-0.68,0.04
-5.76,-0.19,-7.19, -0.03,-0.68,0.04
-5.88,-0.13,-7.14, -0.03,-0.69,0.03
-5.93,-0.13,-7.10, -0.03,-0.72,0.03
-6.00,-0.15,-7.08, -0.02,-0.76,0.03
-6.10,-0.17,-7.00, -0.02,-0.80,0.03
-6.26,-0.19,-6.90, -0.02,-0.82,0.04
-6.31,-0.14,-6.82, -0.02,-0.82,0.05
-6.33,-0.03,-6.77, -0.03,-0.81,0.04
-6.29,0.05,-6.70, -0.03,-0.77,0.03
-6.35,0.06,-6.62, -0.05,-0.70,0.01
-6.44,-0.01,-6.49, -0.06,-0.63,-0.02
-6.49,-0.18,-6.43, -0.07,-0.56,-0.05
-6.57,-0.25,-6.40, -0.06,-0.51,-0.07
-6.62,-0.21,-6.35, -0.06,-0.49,-0.08
-6.74,-0.21,-6.33, -0.06,-0.48,-0.08
-6.82,-0.23,-6.28, -0.07,-0.46,-0.07
-6.75,-0.28,-6.14, -0.07,-0.44,-0.06
-6.74,-0.33,-6.12, -0.06,-0.42,-0.06
-6.82,-0.34,-6.09, -0.06,-0.39,-0.06
-6.85,-0.35,-6.07, -0.05,-0.38,-0.04
-6.90,-0.31,-6.05, -0.05,-0.37,-0.03
-6.94,-0.32,-6.01, -0.05,-0.40,-0.03
-6.97,-0.31,-6.03, -0.05,-0.43,-0.03
-6.96,-0.27,-5.96, -0.06,-0.44,-0.02
-7.00,-0.31,-5.84, -0.06,-0.41,-0.01
-7.04,-0.31,-5.72, -0.07,-0.34,-0.01
-7.03,-0.32,-5.71, -0.07,-0.25,-0.00
-7.01,-0.29,-5.70, -0.08,-0.17,-0.01
-7.04,-0.28,-5.73, -0.09,-0.11,-0.01
-7.04,-0.27,-5.78, -0.09,-0.07,-0.01
-7.06,-0.27,-5.77, -0.10,-0.06,-0.00
-7.11,-0.26,-5.74, -0.10,-0.07,-0.00
-7.06,-0.27,-5.73, -0.10,-0.07,0.00
-7.00,-0.25,-5.68, -0.10,-0.08,-0.00
-7.05,-0.27,-5.69, -0.10,-0.09,-0.01
-7.05,-0.28,-5.69, -0.10,-0.10,-0.01
-7.05,-0.29,-5.75, -0.10,-0.12,-0.00
-7.15,-0.32,-5.74, -0.09,-0.16,0.01
-7.23,-0.34,-5.74, -0.09,-0.20,0.01
-7.37,-0.28,-5.78, -0.08,-0.25,0.02
-7.47,-0.24,-5.80, -0.08,-0.28,0.03
-7.42,-0.18,-5.73, -0.08,-0.29,0.04
-7.33,-0.19,-5.69, -0.08,-0.28,0.04
-7.40,-0.21,-5.66, -0.09,-0.26,0.03
-7.47,-0.29,-5.61, -0.09,-0.25,0.04
-7.46,-0.27,-5.61, -0.09,-0.25,0.06
-7.44,-0.21,-5.54, -0.10,-0.26,0.09
-7.44,-0.24,-5.48, -0.10,-0.27,0.10
-7.35,-0.29,-5.37, -0.10,-0.27,0.10
-7.30,-0.28,-5.27, -0.10,-0.26,0.08
-7.28,-0.30,-5.24, -0.10,-0.26,0.05
-7.26,-0.28,-5.19, -0.09,-0.26,0.02
-7.30,-0.28,-5.16, -0.08,-0.26,-0.00
-7.42,-0.23,-5.17, -0.07,-0.27,-0.01
-7.37,-0.18,-5.15, -0.06,-0.28,0.00
-7.29,-0.18,-5.11, -0.06,-0.28,0.00
-7.36,-0.23,-5.06, -0.05,-0.30,-0.01
-7.48,-0.30,-5.03, -0.04,-0.32,-0.03
-7.55,-0.27,-5.00, -0.03,-0.34,-0.03
-7.52,-0.22,-4.94, -0.03,-0.37,-0.04
-7.49,-0.14,-4.95, -0.03,-0.40,-0.05
-7.47,-0.10,-4.92, -0.03,-0.41,-0.06
-7.44,-0.11,-4.87, -0.04,-0.41,-0.06
-7.49,-0.17,-4.84, -0.04,-0.41,-0.06
-7.66,-0.24,-4.78, -0.04,-0.43,-0.05
-7.75,-0.26,-4.76, -0.04,-0.47,-0.05
-7.75,-0.28,-4.63, -0.05,-0.51,-0.05
-7.68,-0.32,-4.55, -0.06,-0.54,-0.05
-7.63,-0.36,-4.53, -0.05,-0.56,-0.06
-7.62,-0.30,-4.56, -0.04,-0.59,-0.06
-7.66,-0.23,-4.58, -0.03,-0.65,-0.06
-7.81,-0.23,-4.50, -0.03,-0.73,-0.06
-8.07,-0.27,-4.44, -0.03,-0.84,-0.05
-8.15,-0.30,-4.28, -0.02,-0.95,-0.03
-8.15,-0.34,-4.11, -0.02,-1.04,-0.01
-8.06,-0.31,-3.94, -0.01,-1.08,0.00
-8.11,-0.30,-3.80, -0.01,-1.09,-0.00
-8.32,-0.35,-3.66, -0.02,-1.10,-0.01
-8.39,-0.36,-3.51, -0.03,-1.11,-0.03
-8.29,-0.37,-3.38, -0.04,-1.12,-0.06
-8.38,-0.40,-3.30, -0.03,-1.16,-0.08
-8.60,-0.42,-3.14, -0.03,-1.21,-0.06
-8.58,-0.38,-2.94, -0.02,-1.26,-0.02
-8.49,-0.41,-2.76, -0.01,-1.27,0.01
-8.60,-0.60,-2.54, 0.01,-1.26,0.03
-8.74,-0.68,-2.34, 0.03,-1.25,0.03
-8.73,-0.64,-2.27, 0.04,-1.24,0.03
-8.70,-0.52,-2.29, 0.03,-1.24,0.00
-8.62,-0.36,-2.15, 0.01,-1.28,-0.04
-8.90,-0.28,-2.03, 0.00,-1.35,-0.06
-8.98,-0.21,-1.79, 0.01,-1.38,-0.01
-8.71,-0.26,-1.57, 0.02,-1.39,0.03
-8.70,-0.45,-1.30, 0.05,-1.36,0.04
-8.81,-0.59,-0.98, 0.09,-1.32,0.04
-8.86,-0.62,-0.80, 0.10,-1.30,0.02
-8.87,-0.58,-0.65, 0.09,-1.29,-0.01
-8.99,-0.53,-0.50, 0.07,-1.27,-0.03
-9.12,-0.40,-0.30, 0.02,-1.25,-0.05
-9.11,-0.27,-0.17, -0.02,-1.19,-0.07
-8.98,-0.30,0.01, -0.05,-1.07,-0.06
-8.95,-0.46,0.19, -0.05,-0.91,-0.03
-9.04,-0.49,0.35, -0.04,-0.76,-0.01
-9.07,-0.49,0.44, -0.04,-0.64,0.01
-9.05,-0.49,0.45, -0.05,-0.57,0.00
-9.14,-0.47,0.46, -0.07,-0.53,0.00
-9.22,-0.38,0.51, -0.09,-0.50,0.01
-9.09,-0.40,0.61, -0.11,-0.45,0.01
-9.10,-0.46,0.80, -0.12,-0.38,0.01
-9.15,-0.57,0.86, -0.11,-0.31,0.02
-9.09,-0.61,0.87, -0.09,-0.24,0.03
-9.08,-0.59,0.86, -0.07,-0.22,0.03
-9.10,-0.55,0.84, -0.07,-0.25,0.01
-9.16,-0.44,0.71, -0.08,-0.30,0.01
-9.13,-0.33,0.72, -0.08,-0.33,-0.01
-9.08,-0.37,0.81, -0.09,-0.35,-0.01
-9.05,-0.43,0.82, -0.10,-0.32,-0.01
-9.06,-0.51,0.90, -0.09,-0.27,-0.00
-9.11,-0.48,0.93, -0.09,-0.21,0.01
-9.08,-0.47,0.98, -0.08,-0.17,0.01
-9.11,-0.49,1.02, -0.09,-0.15,0.01
-9.18,-0.49,1.10, -0.09,-0.16,0.00
-9.16,-0.47,1.09, -0.10,-0.18,0.00
-9.14,-0.44,1.11, -0.11,-0.19,0.00
-9.17,-0.45,1.13, -0.11,-0.17,0.01
-9.10,-0.45,1.16, -0.10,-0.14,0.02
-9.04,-0.49,1.23, -0.10,-0.09,0.03
-9.03,-0.47,1.18, -0.08,-0.03,0.04
-9.04,-0.42,1.14, -0.08,0.02,0.05
-8.98,-0.40,1.14, -0.08,0.07,0.05
-8.94,-0.42,1.18, -0.08,0.12,0.05
-8.89,-0.41,1.16, -0.07,0.16,0.04
-8.82,-0.36,1.17, -0.06,0.22,0.03
-8.78,-0.33,1.19, -0.05,0.29,0.04
-8.78,-0.31,1.24, -0.02,0.41,0.08
-8.75,-0.29,1.17, 0.02,0.61,0.13
-8.67,-0.31,1.20, 0.05,0.86,0.18
-8.52,-0.18,1.03, 0.05,1.13,0.21
-8.55,-0.03,0.88, -0.01,1.37,0.20
-8.84,-0.12,0.82, -0.08,1.50,0.15
-9.20,-0.26,0.71, -0.15,1.50,0.09
-9.44,-0.36,0.58, -0.19,1.37,0.04
-9.59,-0.40,0.36, -0.18,1.17,0.01
-9.58,-0.38,0.16, -0.14,0.96,0.03
-9.49,-0.34,-0.04, -0.10,0.78,0.07
-9.34,-0.30,-0.22, -0.04,0.65,0.12
-9.16,-0.21,-0.45, -0.01,0.57,0.15
-8.99,-0.01,-0.68, -0.01,0.54,0.16
-8.84,0.08,-0.81, -0.03,0.53,0.14
-8.86,0.02,-0.90, -0.05,0.53,0.13
-8.88,0.04,-0.95, -0.06,0.51,0.14
-8.83,0.04,-1.02, -0.06,0.47,0.17
-8.79,0.01,-1.11, -0.05,0.41,0.20
-8.80,-0.10,-1.19, -0.03,0.35,0.23
-8.89,-0.17,-1.19, -0.00,0.27,0.26
-8.98,-0.25,-1.19, 0.03,0.19,0.26
-9.09,-0.26,-1.21, 0.06,0.09,0.26
-9.24,-0.18,-1.13, 0.08,-0.01,0.24
-9.33,-0.11,-1.04, 0.08,-0.14,0.21
-9.30,0.03,-0.98, 0.08,-0.28,0.18
-9.11,0.10,-1.01, 0.06,-0.41,0.16
-9.10,0.11,-1.01, 0.05,-0.51,0.15
-9.17,0.09,-0.91, 0.04,-0.56,0.14
-9.35,0.09,-0.68, 0.05,-0.59,0.14
-9.43,0.11,-0.47, 0.05,-0.62,0.12
-9.46,0.26,-0.29, 0.05,-0.65,0.10
-9.46,0.35,-0.39, 0.03,-0.66,0.09
-9.48,0.36,-0.33, -0.01,-0.60,0.11
-9.09,0.27,-0.38, -0.04,-0.44,0.13
-8.98,0.17,-0.24, -0.05,-0.24,0.13
-9.13,-0.02,-0.08, -0.03,-0.07,0.12
-9.38,-0.04,-0.09, 0.01,0.05,0.10
-9.44,0.05,-0.19, 0.04,0.11,0.06
-9.33,0.19,-0.40, 0.03,0.12,0.01
-9.19,0.27,-0.70, -0.01,0.14,-0.04
-9.06,0.29,-0.69, -0.05,0.17,-0.11
-9.05,0.23,-0.54, -0.08,0.15,-0.19
-9.30,0.18,-0.45, -0.08,0.06,-0.26
-9.45,0.14,-0.49, -0.06,-0.07,-0.28
-9.33,0.16,-0.57, -0.05,-0.20,-0.26
-9.00,0.19,-0.60, -0.04,-0.32,-0.23
-8.76,0.25,-0.62, -0.03,-0.42,-0.22
-8.73,0.32,-0.69, -0.03,-0.50,-0.23
-8.76,0.34,-0.72, -0.07,-0.57,-0.26
-8.71,0.27,-0.73, -0.14,-0.63,-0.30
-8.53,0.14,-0.73, -0.21,-0.66,-0.34
-8.25,-0.11,-0.72, -0.26,-0.65,-0.38
-7.97,-0.24,-0.70, -0.28,-0.61,-0.41
-7.79,-0.19,-0.64, -0.28,-0.53,-0.45
-7.72,-0.13,-0.53, -0.29,-0.47,-0.49
-7.82,-0.03,-0.54, -0.31,-0.43,-0.52
-7.95,-0.07,-0.42, -0.33,-0.38,-0.48
-7.98,-0.17,-0.40, -0.33,-0.33,-0.39
-7.94,-0.28,-0.32, -0.30,-0.27,-0.27
-7.84,-0.38,-0.32, -0.26,-0.22,-0.13
-7.79,-0.53,-0.40, -0.20,-0.19,0.00
-7.73,-0.59,-0.62, -0.15,-0.20,0.09
-7.43,-0.53,-1.01, -0.11,-0.21,0.12
-7.03,-0.42,-1.36, -0.10,-0.20,0.13
-6.73,-0.27,-1.58, -0.10,-0.17,0.14
-6.72,-0.25,-1.49, -0.10,-0.17,0.16
-7.01,-0.32,-1.32, -0.08,-0.18,0.19
-7.45,-0.35,-1.00, -0.05,-0.22,0.20
-8.19,-0.43,-0.66, -0.03,-0.31,0.19
-8.81,-0.44,-0.64, -0.00,-0.39,0.16
-9.00,-0.26,-0.92, -0.00,-0.42,0.15
-8.74,-0.04,-1.16, -0.03,-0.40,0.14
-8.41,-0.03,-1.30, -0.06,-0.35,0.17
-8.31,-0.06,-1.39, -0.07,-0.26,0.21
-8.68,-0.20,-1.22, -0.04,-0.15,0.28
-9.34,-0.31,-0.88, 0.03,-0.05,0.39
-9.99,-0.34,-0.74, 0.08,0.03,0.50
-10.34,-0.18,-0.76, 0.10,0.12,0.58
-10.39,0.03,-0.87, 0.05,0.18,0.56
-10.16,0.33,-1.19, -0.06,0.25,0.44
-9.73,0.81,-1.39, -0.21,0.33,0.29
-9.35,0.87,-1.19, -0.35,0.43,0.19
-9.24,0.55,-0.69, -0.39,0.57,0.20
-9.47,0.24,-0.11, -0.33,0.71,0.30
-9.98,0.19,0.17, -0.24,0.75,0.38
-10.65,0.54,0.18, -0.22,0.66,0.32
-11.35,0.81,0.15, -0.28,0.46,0.12
-11.90,0.68,0.35, -0.35,0.20,-0.12
-11.96,0.42,0.30, -0.38,-0.03,-0.30
-11.53,0.34,0.27, -0.37,-0.09,-0.33
-11.03,0.46,0.44, -0.35,0.04,-0.25
-11.03,0.32,0.79, -0.33,0.26,-0.16
-11.46,0.16,0.90, -0.32,0.50,-0.15
-11.42,0.27,0.74, -0.31,0.67,-0.20
-11.12,0.41,0.51, -0.32,0.75,-0.29
-11.05,0.33,0.41, -0.32,0.75,-0.31
-11.14,0.07,0.41, -0.29,0.72,-0.22
-11.40,-0.14,0.49, -0.24,0.69,-0.07
-11.39,-0.14,0.67, -0.21,0.67,0.05
-11.13,-0.17,0.79, -0.20,0.65,0.06
-11.13,-0.12,0.79, -0.20,0.59,-0.05
-11.21,-0.22,0.92, -0.19,0.52,-0.17
-11.30,-0.40,0.93, -0.15,0.46,-0.24
-11.22,-0.44,0.94, -0.10,0.46,-0.23
-11.11,-0.41,0.91, -0.02,0.50,-0.14
-10.73,-0.33,0.88, 0.04,0.59,-0.05
-10.23,-0.21,0.80, 0.07,0.67,-0.02
-9.90,-0.15,0.56, 0.09,0.73,-0.04
-9.58,-0.17,0.35, 0.10,0.77,-0.06
-9.33,-0.20,0.16, 0.12,0.79,-0.05
-9.17,-0.14,0.04, 0.13,0.77,-0.03
-8.98,0.01,-0.06, 0.13,0.72,-0.02
-8.78,0.11,-0.20, 0.11,0.64,-0.02
-8.55,0.05,-0.25, 0.09,0.60,-0.03
-8.22,0.04,-0.30, 0.08,0.58,-0.04
-7.93,0.02,-0.44, 0.06,0.59,-0.03
-7.63,-0.07,-0.51, 0.06,0.60,-0.02
-7.53,-0.23,-0.68, 0.07,0.60,-0.03
-7.55,-0.24,-0.81, 0.10,0.57,-0.05
-7.54,-0.11,-0.97, 0.11,0.52,-0.05
-7.45,0.05,-1.06, 0.10,0.45,-0.05
-7.35,0.09,-1.15, 0.07,0.40,-0.05
-7.35,0.05,-1.27, 0.04,0.36,-0.05
-7.37,-0.03,-1.30, 0.01,0.35,-0.05
-7.47,-0.06,-1.36, -0.00,0.34,-0.05
-7.56,-0.06,-1.43, -0.02,0.32,-0.05
-7.71,-0.05,-1.44, -0.04,0.26,-0.04
-7.81,-0.05,-1.53, -0.07,0.21,-0.04
-7.88,-0.11,-1.50, -0.09,0.16,-0.04
-7.92,-0.14,-1.46, -0.10,0.13,-0.03
-7.93,-0.12,-1.53, -0.09,0.11,-0.01
-7.86,-0.03,-1.60, -0.08,0.10,0.01
-7.78,-0.06,-1.53, -0.07,0.07,0.03
-7.86,-0.14,-1.49, -0.05,0.03,0.06
-8.00,-0.19,-1.47, -0.03,-0.02,0.09
-8.11,-0.08,-1.46, -0.01,-0.07,0.10
-8.12,0.07,-1.53, -0.01,-0.09,0.07
-8.10,0.17,-1.66, -0.03,-0.09,0.03
-8.16,0.17,-1.80, -0.05,-0.08,-0.01
-8.15,0.16,-1.94, -0.07,-0.04,-0.03
-8.16,0.15,-2.10, -0.08,-0.00,-0.03
-8.26,0.11,-2.15, -0.09,0.02,-0.03
-8.49,0.14,-2.18, -0.12,-0.00,-0.03
-8.99,0.09,-2.27, -0.15,-0.06,-0.04
-9.37,-0.02,-2.20, -0.18,-0.10,-0.04
-9.61,-0.16,-2.09, -0.20,-0.10,-0.02
-9.67,-0.24,-1.99, -0.19,-0.07,0.02
-9.66,-0.24,-1.81, -0.16,-0.03,0.06
-9.67,-0.26,-1.58, -0.11,-0.02,0.11
-9.64,-0.33,-1.56, -0.08,-0.03,0.14
-9.52,-0.24,-1.65, -0.07,-0.05,0.12
-9.43,-0.11,-1.67, -0.08,-0.06,0.04
-9.48,-0.13,-1.65, -0.09,-0.07,-0.03
-9.55,-0.17,-1.43, -0.09,-0.08,-0.06
-9.63,-0.16,-1.23, -0.08,-0.10,-0.05
-9.52,-0.16,-1.17, -0.07,-0.14,-0.04
-9.44,-0.17,-1.19, -0.06,-0.17,-0.04
-9.69,-0.21,-1.24, -0.05,-0.18,-0.05
-9.80,-0.25,-1.16, -0.07,-0.21,-0.02
-9.61,-0.18,-1.02, -0.08,-0.28,0.00
-9.46,-0.08,-0.97, -0.09,-0.41,0.01
-9.43,0.07,-1.30, -0.13,-0.55,0.02
-9.22,0.37,-1.57, -0.21,-0.63,0.02
-9.16,0.26,-1.68, -0.28,-0.64,-0.03
-9.48,-0.07,-1.79, -0.31,-0.58,-0.05
-10.11,-0.53,-1.75, -0.27,-0.46,0.02
-10.18,-0.65,-1.63, -0.21,-0.32,0.19
-9.74,-0.42,-1.55, -0.16,-0.22,0.37
-9.27,-0.14,-1.52, -0.11,-0.18,0.46
-9.00,-0.01,-1.38, -0.06,-0.22,0.48
-8.82,0.03,-1.45, -0.02,-0.35,0.43
-8.44,0.05,-1.52, -0.01,-0.52,0.32
-8.09,0.00,-1.30, -0.00,-0.73,0.16
-8.11,0.10,-1.24, 0.03,-0.88,-0.01
-8.19,0.21,-1.00, 0.08,-0.90,-0.16
-8.28,0.29,-0.94, 0.11,-0.82,-0.27
-8.40,0.30,-1.03, 0.11,-0.67,-0.34
-8.35,0.26,-1.10, 0.06,-0.52,-0.38
-8.21,0.22,-0.99, -0.03,-0.46,-0.43
-7.99,0.04,-0.84, -0.11,-0.50,-0.46
-7.82,-0.03,-0.77, -0.14,-0.59,-0.45
-7.69,-0.09,-0.90, -0.15,-0.68,-0.40
-7.50,-0.12,-0.83, -0.17,-0.74,-0.33
-7.52,-0.16,-0.71, -0.19,-0.81,-0.32
-7.69,-0.28,-0.59, -0.21,-0.91,-0.39
-8.02,-0.48,-0.57, -0.21,-0.99,-0.47
-8.43,-0.58,-0.52, -0.21,-1.01,-0.49
-8.60,-0.78,-0.39, -0.21,-0.96,-0.41
-8.49,-0.83,-0.19, -0.17,-0.86,-0.30
-8.15,-0.72,-0.27, -0.13,-0.79,-0.22
-7.81,-0.38,-0.41, -0.10,-0.81,-0.19
-7.66,-0.34,-0.54, -0.07,-0.95,-0.21
-7.70,-0.21,-0.57, -0.06,-1.16,-0.23
-7.83,-0.24,-0.49, -0.07,-1.38,-0.26
-7.82,-0.40,-0.28, -0.08,-1.54,-0.26
-7.70,-0.63,-0.02, -0.07,-1.60,-0.21
-7.62,-0.75,0.21, -0.00,-1.62,-0.11
-7.50,-0.56,0.31, 0.06,-1.67,0.03
-7.52,-0.49,0.28, 0.08,-1.83,0.09
-7.59,-0.47,0.22, 0.08,-2.04,0.05
-7.58,-0.50,0.43, 0.08,-2.24,-0.04
-7.52,-0.59,0.77, 0.12,-2.39,-0.13
-7.56,-0.59,1.03, 0.20,-2.44,-0.16
-7.69,-0.60,1.09, 0.29,-2.39,-0.06
-7.39,-0.29,1.19, 0.34,-2.25,0.12
-6.99,-0.07,1.45, 0.36,-2.14,0.27
-7.05,0.00,1.85, 0.32,-2.14,0.35
-7.88,-0.10,2.29, 0.27,-2.23,0.34
-8.96,-0.40,2.46, 0.26,-2.24,0.30
-9.74,-0.51,2.89, 0.31,-2.09,0.27
-9.73,-0.36,3.29, 0.39,-1.84,0.22
-9.65,-0.19,3.85, 0.45,-1.55,0.16
-9.92,-0.11,4.69, 0.45,-1.26,0.11
-10.14,-0.18,5.28, 0.38,-0.99,0.12
-10.36,-0.27,5.22, 0.28,-0.61,0.19
-10.35,-0.17,4.61, 0.19,0.02,0.23
-9.90,-0.11,4.47, 0.10,0.78,0.22
-9.46,-0.08,5.11, 0.07,1.38,0.12
-9.63,-0.37,5.31, 0.12,1.68,-0.03
-9.96,-0.28,5.06, 0.18,1.76,-0.10
-10.28,0.09,4.21, 0.19,1.71,-0.06
-10.51,0.47,3.33, 0.08,1.68,0.05
-10.54,0.50,3.16, -0.07,1.73,0.16
-10.50,0.11,3.53, -0.13,1.87,0.22
-10.38,-0.42,4.17, -0.07,2.03,0.27
-10.37,-0.93,4.41, 0.07,2.14,0.32
-10.38,-0.65,4.04, 0.20,2.24,0.39
-10.36,-0.06,3.51, 0.24,2.33,0.43
-10.58,0.35,3.09, 0.18,2.33,0.39
-10.92,0.52,2.83, 0.04,2.28,0.29
-11.40,0.41,2.90, -0.09,2.20,0.19
-12.04,-0.07,3.15, -0.15,2.13,0.14
-12.33,-0.27,2.91, -0.15,2.14,0.18
-11.81,0.14,2.71, -0.14,2.23,0.20
-11.06,0.63,2.23, -0.15,2.28,0.09
-10.89,1.07,1.59, -0.20,2.26,-0.10
-11.12,1.31,1.09, -0.31,2.15,-0.23
-11.33,1.16,0.86, -0.44,1.99,-0.24
-11.40,0.75,0.98, -0.50,1.87,-0.14
-11.35,0.14,1.10, -0.48,1.83,-0.04
-11.09,-0.05,1.17, -0.39,1.87,-0.04
-10.86,0.23,0.87, -0.31,1.91,-0.13
-10.80,0.48,0.28, -0.29,1.90,-0.25
-10.57,0.58,0.03, -0.32,1.83,-0.34
-10.34,0.34,-0.08, -0.33,1.73,-0.38
-10.24,-0.12,-0.11, -0.29,1.66,-0.39
-10.13,-0.59,-0.14, -0.20,1.68,-0.39
-9.60,-0.64,-0.16, -0.07,1.75,-0.37
-8.86,-0.29,-0.33, 0.04,1.76,-0.35
-8.74,0.17,-0.85, 0.10,1.67,-0.32
-9.11,0.40,-1.30, 0.08,1.51,-0.24
-9.33,0.41,-1.54, 0.03,1.34,-0.16
-9.20,0.13,-1.52, -0.00,1.20,-0.14
-8.93,-0.21,-1.53, 0.01,1.15,-0.15
-8.60,-0.32,-1.59, 0.04,1.17,-0.17
-8.18,-0.28,-1.58, 0.07,1.20,-0.18
-7.54,-0.12,-1.70, 0.09,1.17,-0.20
-7.29,0.08,-2.09, 0.10,1.08,-0.21
-7.27,0.16,-2.39, 0.08,0.98,-0.17
-7.13,0.13,-2.50, 0.06,0.88,-0.14
-7.09,0.07,-2.63, 0.04,0.81,-0.13
-6.99,-0.04,-2.56, 0.02,0.74,-0.16
-7.08,-0.06,-2.58, 0.02,0.65,-0.20
-7.50,-0.09,-2.64, 0.02,0.52,-0.21
-7.86,-0.12,-2.60, 0.00,0.35,-0.18
-7.95,-0.07,-2.50, -0.02,0.17,-0.12
-7.85,-0.05,-2.31, -0.05,0.00,-0.06
-7.75,-0.21,-2.04, -0.07,-0.12,-0.01
-7.80,-0.48,-1.91, -0.06,-0.18,0.02
-7.71,-0.54,-2.04, -0.04,-0.17,0.03
-7.60,-0.45,-2.25, -0.03,-0.10,0.04
-7.59,-0.40,-2.39, -0.04,0.02,0.04
-7.63,-0.34,-2.57, -0.04,0.14,0.04
-7.61,-0.23,-2.88, -0.07,0.26,0.03
-7.46,-0.14,-3.07, -0.10,0.33,0.03
-7.58,-0.24,-3.12, -0.10,0.33,0.03
-7.95,-0.45,-3.11, -0.08,0.25,0.05
-8.42,-0.74,-2.96, -0.03,0.10,0.08
-8.89,-0.82,-2.99, 0.04,-0.09,0.09
-9.00,-0.59,-2.96, 0.07,-0.30,0.08
-8.76,-0.25,-3.01, 0.08,-0.51,0.04
-8.83,-0.10,-3.21, 0.08,-0.66,-0.02
-8.86,-0.12,-3.24, 0.08,-0.75,-0.06
-8.69,-0.08,-3.18, 0.08,-0.81,-0.10
-8.64,-0.02,-3.15, 0.06,-0.87,-0.12
-8.46,-0.17,-2.80, 0.01,-0.93,-0.14
-8.22,-0.43,-2.66, -0.03,-0.97,-0.17
-8.06,-0.71,-2.76, -0.03,-0.96,-0.23
-8.00,-0.78,-2.92, 0.00,-0.93,-0.30
-8.30,-0.61,-3.22, 0.03,-0.90,-0.34
-8.47,-0.50,-3.11, 0.02,-0.89,-0.31
-8.46,-0.61,-2.56, 0.03,-0.95,-0.26
-8.35,-0.86,-2.21, 0.05,-1.11,-0.24
-8.16,-0.89,-2.41, 0.08,-1.30,-0.28
-8.06,-0.79,-2.87, 0.08,-1.45,-0.34
-8.14,-0.61,-3.13, 0.04,-1.51,-0.36
-8.37,-0.73,-3.15, -0.01,-1.52,-0.32
-8.20,-0.90,-2.61, -0.04,-1.48,-0.23
-7.81,-1.07,-1.94, -0.02,-1.48,-0.15
-7.48,-1.15,-1.55, 0.02,-1.51,-0.11
-7.29,-0.77,-1.69, 0.07,-1.53,-0.11
-7.25,-0.24,-1.82, 0.06,-1.50,-0.10
-7.50,0.12,-1.50, -0.07,-1.45,-0.07
-7.55,0.09,-0.89, -0.23,-1.39,-0.11
-7.39,-0.29,-0.54, -0.35,-1.27,-0.18
-7.18,-0.70,-0.69, -0.41,-1.04,-0.23
-7.07,-0.97,-1.36, -0.46,-0.66,-0.25
-7.03,-1.10,-1.87, -0.49,-0.20,-0.21
-7.10,-1.12,-2.16, -0.51,0.18,-0.14
-7.31,-1.12,-2.15, -0.53,0.35,-0.11
-7.57,-1.17,-1.89, -0.53,0.26,-0.13
-7.94,-1.15,-1.92, -0.50,-0.06,-0.16
-8.35,-1.21,-2.14, -0.46,-0.47,-0.17
-8.40,-1.25,-2.34, -0.40,-0.85,-0.11
-7.98,-1.33,-2.43, -0.32,-1.13,-0.02
-7.35,-1.31,-2.44, -0.22,-1.31,0.05
-6.99,-1.34,-2.38, -0.12,-1.40,0.07
-7.05,-1.25,-2.40, -0.04,-1.41,0.07
-7.30,-1.13,-2.34, -0.02,-1.37,0.07
-7.61,-0.93,-2.21, -0.03,-1.30,0.07
-7.98,-0.88,-2.04, -0.06,-1.17,0.10
-8.20,-0.97,-1.85, -0.09,-0.95,0.16
-8.31,-1.09,-1.78, -0.09,-0.68,0.21
-8.42,-1.09,-1.49, -0.08,-0.44,0.24
-8.72,-1.15,-1.26, -0.04,-0.35,0.23
-9.05,-1.06,-0.90, 0.01,-0.46,0.22
-9.46,-0.93,-0.56, 0.06,-0.71,0.21
-9.72,-0.77,-0.13, 0.10,-0.98,0.21
-9.72,-0.64,0.39, 0.12,-1.14,0.22
-9.50,-0.71,1.06, 0.16,-1.16,0.22
-9.23,-0.72,1.58, 0.19,-1.06,0.23
-9.10,-0.64,1.72, 0.19,-0.90,0.22
-9.12,-0.42,1.50, 0.11,-0.71,0.21
-9.17,-0.25,1.24, -0.02,-0.50,0.19
-9.14,-0.16,1.06, -0.17,-0.27,0.19
-9.18,-0.38,1.35, -0.24,-0.02,0.22
-9.42,-0.83,1.78, -0.21,0.19,0.30
-9.81,-1.11,1.81, -0.08,0.31,0.39
-10.13,-1.05,1.44, 0.04,0.33,0.48
-10.38,-0.67,1.33, 0.10,0.28,0.56
-10.98,-0.27,1.34, 0.06,0.17,0.61
-11.48,0.11,1.33, -0.07,0.10,0.58
-11.73,0.06,1.36, -0.22,0.16,0.45
-11.67,-0.36,1.14, -0.33,0.37,0.26
-11.06,-0.81,0.86, -0.36,0.66,0.15
-10.21,-0.99,0.44, -0.32,0.93,0.15
-9.46,-0.70,0.16, -0.26,1.06,0.23
-9.25,-0.30,0.09, -0.23,1.01,0.29
-9.58,0.10,0.15, -0.22,0.82,0.28
-10.35,-0.02,0.18, -0.22,0.58,0.24
-10.94,-0.25,0.30, -0.23,0.43,0.23
-10.87,-0.50,0.34, -0.22,0.44,0.21
-10.16,-0.58,0.38, -0.21,0.56,0.20
-9.41,-0.47,0.57, -0.21,0.65,0.20
-9.20,-0.23,0.66, -0.17,0.60,0.20
-9.56,0.08,0.44, -0.17,0.44,0.22
-10.01,0.31,0.42, -0.21,0.25,0.26
-10.11,0.35,0.54, -0.28,0.19,0.29
-10.07,0.11,0.86, -0.30,0.28,0.29
-10.37,-0.05,1.24, -0.26,0.39,0.25
-10.83,-0.00,1.35, -0.22,0.40,0.18
-11.07,0.30,1.65, -0.20,0.29,0.09
-11.34,0.59,1.70, -0.25,0.10,-0.03
-11.59,0.53,1.86, -0.35,-0.01,-0.14
-11.48,0.20,1.93, -0.44,0.02,-0.22
-10.97,-0.14,1.87, -0.47,0.15,-0.27
-10.32,-0.26,1.61, -0.43,0.28,-0.28
-9.76,-0.22,1.41, -0.36,0.35,-0.26
-9.57,-0.21,1.23, -0.27,0.33,-0.19
-9.83,-0.13,1.15, -0.20,0.26,-0.10
-10.16,-0.07,1.26, -0.16,0.19,-0.02
-10.24,0.03,1.40, -0.14,0.17,0.03
-10.06,0.07,1.64, -0.15,0.20,0.05
-9.79,0.11,1.76, -0.16,0.25,0.05
-9.66,0.10,1.72, -0.18,0.28,0.04
-9.52,0.17,1.64, -0.20,0.29,0.04
-9.37,0.22,1.65, -0.21,0.31,0.05
-9.27,0.19,1.59, -0.20,0.33,0.08
-9.16,0.19,1.48, -0.18,0.38,0.13
-8.83,0.12,1.38, -0.14,0.44,0.18
-8.65,0.18,1.29, -0.11,0.45,0.22
-8.67,0.29,1.10, -0.08,0.43,0.22
-8.70,0.45,0.94, -0.08,0.38,0.19
-8.55,0.51,0.75, -0.10,0.34,0.14
-8.25,0.57,0.58, -0.13,0.31,0.09
-8.07,0.52,0.54, -0.14,0.30,0.05
-8.02,0.37,0.56, -0.14,0.32,0.03
-8.18,0.28,0.54, -0.11,0.36,0.03
-8.41,0.27,0.53, -0.08,0.38,0.02
-8.54,0.37,0.49, -0.06,0.37,-0.01
-8.54,0.47,0.38, -0.06,0.32,-0.04
-8.46,0.48,0.28, -0.07,0.26,-0.07
-8.35,0.46,0.21, -0.09,0.22,-0.09
-8.25,0.38,0.04, -0.09,0.22,-0.10
-8.22,0.35,-0.08, -0.09,0.24,-0.10
-8.19,0.37,-0.19, -0.09,0.26,-0.11
-8.26,0.39,-0.24, -0.10,0.24,-0.11
-8.49,0.31,-0.29, -0.11,0.19,-0.12
-8.68,0.22,-0.34, -0.12,0.15,-0.12
-8.73,0.15,-0.37, -0.11,0.12,-0.13
-8.68,0.17,-0.36, -0.10,0.11,-0.12
-8.66,0.26,-0.46, -0.10,0.12,-0.12
-8.72,0.30,-0.64, -0.11,0.14,-0.13
-8.86,0.20,-0.69, -0.12,0.16,-0.14
-9.05,0.15,-0.85, -0.13,0.15,-0.14
-9.11,0.10,-0.91, -0.14,0.12,-0.13
-9.05,0.11,-0.92, -0.14,0.06,-0.13
-9.11,0.11,-0.92, -0.15,-0.02,-0.11
-9.24,0.13,-0.89, -0.15,-0.09,-0.08
-9.35,0.14,-0.79, -0.15,-0.15,-0.06
-9.33,0.08,-0.74, -0.15,-0.17,-0.06
-9.31,0.03,-0.66, -0.15,-0.16,-0.07
-9.36,-0.06,-0.65, -0.15,-0.11,-0.08
-9.29,-0.05,-0.59, -0.15,-0.05,-0.08
-9.25,0.07,-0.63, -0.15,-0.00,-0.08
-9.21,0.13,-0.71, -0.16,0.01,-0.10
-9.23,0.20,-0.75, -0.17,0.00,-0.10
-9.27,0.26,-0.68, -0.19,-0.04,-0.10
-9.30,0.22,-0.64, -0.19,-0.10,-0.11
-9.42,0.15,-0.52, -0.20,-0.16,-0.12
-9.49,0.08,-0.52, -0.22,-0.23,-0.13
-9.51,-0.04,-0.48, -0.23,-0.28,-0.15
-9.50,-0.14,-0.43, -0.23,-0.31,-0.17
-9.50,-0.28,-0.42, -0.22,-0.34,-0.19
-9.46,-0.32,-0.45, -0.19,-0.39,-0.20
-9.41,-0.28,-0.65, -0.16,-0.44,-0.19
-9.37,-0.25,-0.74, -0.16,-0.51,-0.17
-9.25,-0.31,-0.63, -0.17,-0.62,-0.18
-9.26,-0.51,-0.61, -0.16,-0.78,-0.21
-9.44,-0.75,-0.55, -0.13,-0.97,-0.26
-9.61,-0.90,-0.52, -0.10,-1.19,-0.29
-9.47,-0.96,-0.52, -0.06,-1.43,-0.33
-9.29,-0.92,-0.50, -0.05,-1.69,-0.37
-9.02,-0.86,-0.45, -0.05,-1.95,-0.41
-8.75,-0.97,-0.08, -0.06,-2.23,-0.44
-8.85,-1.30,0.27, -0.04,-2.56,-0.46
-8.96,-1.35,0.37, -0.01,-2.89,-0.41
-8.68,-0.76,0.20, -0.02,-3.18,-0.30
-7.85,-0.15,0.28, -0.13,-3.32,-0.24
-7.04,0.13,0.80, -0.31,-3.29,-0.25
-6.58,0.01,1.59, -0.54,-3.03,-0.28
-6.73,-0.35,2.57, -0.73,-2.48,-0.29
-7.16,-0.82,3.70, -0.87,-1.67,-0.23
-7.58,-1.29,4.41, -0.92,-0.71,-0.13
-7.88,-1.52,4.73, -0.93,0.22,-0.03
-8.01,-1.41,4.53, -0.96,0.96,0.03
-8.02,-1.24,4.08, -1.02,1.37,0.06
-7.97,-1.04,3.45, -1.09,1.49,0.05
-8.03,-0.99,2.96, -1.14,1.39,0.05
-8.20,-1.20,2.66, -1.12,1.17,0.05
-8.44,-1.57,2.60, -1.03,0.89,0.07
-8.76,-1.76,2.66, -0.91,0.56,0.10
-9.17,-1.59,2.68, -0.83,0.23,0.12
-9.32,-1.33,2.61, -0.79,-0.05,0.16
-9.10,-0.96,2.53, -0.77,-0.21,0.22
-8.72,-0.67,2.31, -0.77,-0.24,0.31
-8.29,-0.57,2.22, -0.76,-0.14,0.39
-8.34,-0.66,2.24, -0.76,0.01,0.43
-8.59,-1.21,2.42, -0.72,0.16,0.45
-8.69,-1.63,2.34, -0.64,0.24,0.42
-8.60,-1.40,2.02, -0.57,0.27,0.36
-8.43,-0.98,1.84, -0.55,0.20,0.30
-8.24,-0.61,1.60, -0.58,0.05,0.23
-8.33,-0.52,1.63, -0.62,-0.16,0.17
-8.59,-0.78,1.92, -0.61,-0.38,0.13
-8.98,-0.93,2.23, -0.55,-0.60,0.11
-9.08,-0.95,2.52, -0.51,-0.80,0.09
-8.97,-0.97,2.74, -0.50,-0.95,0.06
-8.62,-0.89,2.76, -0.51,-1.01,0.02
-8.13,-0.74,2.73, -0.53,-0.95,-0.01
-7.97,-0.68,2.85, -0.54,-0.79,-0.05
-8.19,-0.81,3.24, -0.51,-0.61,-0.06
-8.54,-0.96,3.55, -0.45,-0.46,-0.05
-8.84,-1.24,3.80, -0.38,-0.38,-0.03
-8.91,-1.30,3.90, -0.34,-0.35,-0.03
-8.73,-1.17,3.87, -0.35,-0.33,-0.03
-8.43,-0.97,3.81, -0.38,-0.33,-0.03
-8.25,-0.87,3.79, -0.44,-0.36,-0.04
-8.44,-0.85,3.96, -0.48,-0.42,-0.01
-8.54,-1.02,4.28, -0.51,-0.48,0.04
-8.44,-1.23,4.56, -0.53,-0.51,0.07
-8.42,-1.44,4.74, -0.54,-0.47,0.07
-8.39,-1.46,4.81, -0.55,-0.37,0.05
-8.35,-1.28,4.82, -0.56,-0.22,0.05
-8.31,-1.10,4.72, -0.55,-0.05,0.07
-8.43,-1.00,4.67, -0.53,0.08,0.11
-8.61,-1.11,4.66, -0.49,0.16,0.17
-8.87,-1.23,4.64, -0.45,0.19,0.24
-8.86,-1.20,4.55, -0.44,0.17,0.30
-8.69,-0.86,4.29, -0.47,0.14,0.37
-8.45,-0.50,3.92, -0.55,0.12,0.43
-8.31,-0.29,3.66, -0.66,0.12,0.49
-8.38,-0.52,3.66, -0.80,0.10,0.51
-8.71,-1.28,4.00, -0.97,0.03,0.49
-8.75,-2.13,4.39, -1.16,-0.08,0.40
-8.30,-2.47,4.21, -1.36,-0.10,0.30
-7.43,-2.19,3.52, -1.50,0.09,0.26
-6.75,-1.45,2.89, -1.62,0.40,0.24
-6.83,-0.68,2.65, -1.82,0.61,0.15
-7.64,-0.65,2.60, -2.01,0.61,0.05
-8.41,-1.19,2.52, -2.03,0.52,0.03
-8.75,-2.00,2.38, -1.89,0.37,0.06
-8.62,-2.45,2.24, -1.70,0.21,0.08
-8.59,-2.36,2.35, -1.55,0.05,0.07
-8.73,-2.02,2.68, -1.46,-0.11,0.07
-8.69,-1.60,2.89, -1.45,-0.25,0.09
-8.40,-1.26,2.86, -1.47,-0.30,0.11
-8.25,-1.18,2.76, -1.49,-0.24,0.11
-8.38,-1.38,2.75, -1.47,-0.14,0.13
-8.61,-1.85,2.69, -1.41,-0.05,0.15
-8.91,-2.22,2.71, -1.30,0.01,0.16
-9.29,-2.34,3.01, -1.19,-0.00,0.15
-9.48,-2.11,3.21, -1.12,-0.08,0.16
-9.27,-1.72,3.27, -1.08,-0.13,0.17
-9.05,-1.35,3.31, -1.06,-0.13,0.19
-8.81,-1.22,3.28, -1.06,-0.10,0.21
-8.70,-1.36,3.21, -1.08,-0.07,0.21
-8.54,-1.60,3.03, -1.13,-0.06,0.17
-8.58,-1.83,3.02, -1.21,-0.08,0.12
-8.65,-2.00,3.13, -1.29,-0.13,0.07
-8.86,-2.16,3.35, -1.33,-0.18,0.02
-8.93,-2.08,3.42, -1.35,-0.19,-0.01
-8.78,-1.94,3.49, -1.34,-0.15,-0.01
-8.64,-1.77,3.49, -1.31,-0.05,0.02
-8.58,-1.64,3.44, -1.28,0.07,0.04
-8.57,-1.70,3.21, -1.26,0.19,0.04
-8.60,-1.88,3.03, -1.22,0.29,0.02
-8.61,-2.24,2.78, -1.15,0.37,-0.01
-8.70,-2.50,2.65, -1.06,0.39,-0.04
-8.77,-2.48,2.61, -0.96,0.33,-0.04
-8.88,-2.23,2.81, -0.89,0.17,-0.01
-8.89,-1.92,3.06, -0.87,-0.05,0.05
-8.78,-1.67,3.17, -0.89,-0.21,0.11
-8.61,-1.62,3.18, -0.93,-0.24,0.16
-8.53,-1.71,3.11, -0.94,-0.14,0.19
-8.52,-2.02,2.92, -0.93,0.05,0.20
-8.57,-2.21,2.71, -0.89,0.25,0.21
-8.72,-2.27,2.57, -0.84,0.37,0.21
-8.83,-2.17,2.46, -0.81,0.38,0.23
-8.83,-2.03,2.42, -0.79,0.28,0.26
-8.76,-2.05,2.39, -0.82,0.16,0.28
-8.75,-2.13,2.30, -0.86,0.08,0.30
-8.76,-2.40,2.15, -0.88,0.07,0.31
-8.87,-2.66,1.98, -0.89,0.11,0.27
-9.00,-2.52,1.89, -0.85,0.15,0.26
-9.14,-2.28,1.97, -0.78,0.12,0.27
-9.12,-1.96,2.10, -0.74,-0.01,0.29
-8.89,-1.64,2.22, -0.75,-0.17,0.30
-8.67,-1.40,2.36, -0.78,-0.26,0.28
-8.61,-1.30,2.44, -0.78,-0.23,0.27
-8.61,-1.43,2.44, -0.77,-0.09,0.24
-8.70,-1.68,2.32, -0.73,0.08,0.20
-8.70,-1.77,2.17, -0.69,0.21,0.16
-8.67,-1.64,2.04, -0.66,0.25,0.11
-8.60,-1.48,2.03, -0.64,0.17,0.07
-8.59,-1.41,2.20, -0.63,0.03,0.04
-8.60,-1.35,2.45, -0.64,-0.12,0.02
-8.57,-1.48,2.72, -0.64,-0.22,-0.01
-8.56,-1.62,2.78, -0.63,-0.21,-0.04
-8.49,-1.70,2.75, -0.60,-0.13,-0.08
-8.47,-1.76,2.73, -0.54,-0.02,-0.13
-8.47,-1.86,2.77, -0.46,0.06,-0.18
-8.50,-1.71,2.78, -0.36,0.09,-0.20
-8.51,-1.41,2.95, -0.25,0.06,-0.18
-8.56,-1.34,3.20, -0.18,-0.01,-0.13
-8.67,-1.47,3.31, -0.13,-0.03,-0.07
-8.81,-1.55,3.39, -0.10,0.02,-0.01
-8.75,-1.57,3.30, -0.08,0.09,0.04
-8.61,-1.45,3.17, -0.06,0.15,0.08
-8.53,-1.44,3.04, -0.03,0.18,0.10
-8.52,-1.52,3.02, 0.00,0.16,0.09
-8.56,-1.42,3.15, 0.02,0.09,0.09
-8.58,-1.34,3.30, 0.02,0.02,0.10
-8.58,-1.36,3.38, -0.00,0.01,0.12
-8.57,-1.40,3.40, -0.04,0.07,0.13
-8.65,-1.53,3.33, -0.08,0.16,0.14
-8.68,-1.69,3.13, -0.10,0.24,0.14
-8.76,-1.67,2.88, -0.10,0.29,0.12
-8.89,-1.65,2.70, -0.09,0.30,0.11
-8.95,-1.66,2.62, -0.07,0.25,0.10
-8.99,-1.73,2.67, -0.07,0.18,0.08
-8.98,-1.88,2.77, -0.08,0.11,0.08
-8.97,-2.05,2.82, -0.10,0.08,0.09
-8.84,-2.07,2.82, -0.09,0.14,0.12
-8.68,-1.93,2.74, -0.06,0.25,0.13
-8.58,-1.70,2.67, -0.04,0.33,0.13
-8.59,-1.53,2.58, -0.02,0.33,0.14
-8.59,-1.47,2.48, -0.01,0.28,0.13
-8.58,-1.50,2.39, -0.01,0.22,0.12
-8.54,-1.63,2.40, -0.02,0.15,0.10
-8.54,-1.67,2.33, -0.03,0.13,0.08
-8.49,-1.71,2.13, -0.01,0.18,0.06
-8.53,-1.59,1.96, -0.01,0.27,0.04
-8.59,-1.46,1.73, -0.02,0.33,0.02
-8.63,-1.33,1.53, -0.03,0.35,0.02
-8.67,-1.33,1.45, -0.04,0.32,0.02
-8.69,-1.47,1.39, -0.03,0.26,0.01
-8.75,-1.77,1.36, -0.00,0.20,-0.00
-8.78,-1.99,1.27, 0.06,0.21,-0.03
-8.67,-2.04,1.13, 0.12,0.26,-0.07
-8.62,-1.87,0.96, 0.16,0.33,-0.10
-8.66,-1.67,0.88, 0.19,0.33,-0.13
-8.77,-1.60,0.83, 0.22,0.27,-0.15
-8.85,-1.68,0.83, 0.27,0.22,-0.16
-8.86,-1.81,0.84, 0.33,0.19,-0.16
-8.87,-1.86,0.92, 0.41,0.17,-0.17
-8.95,-1.89,0.95, 0.49,0.15,-0.18
-8.94,-1.84,0.93, 0.55,0.13,-0.17
-8.86,-1.78,0.91, 0.57,0.12,-0.15
-8.77,-1.79,0.81, 0.58,0.15,-0.13
-8.77,-1.91,0.80, 0.56,0.19,-0.13
-8.85,-1.95,0.82, 0.54,0.21,-0.12
-8.91,-2.01,0.86, 0.53,0.19,-0.12
-8.94,-2.03,0.81, 0.52,0.14,-0.12
-8.92,-1.88,0.85, 0.49,0.09,-0.12
-8.84,-1.79,0.80, 0.47,0.08,-0.10
-8.80,-1.76,0.65, 0.43,0.13,-0.08
-8.86,-1.92,0.56, 0.40,0.21,-0.05
-8.98,-2.10,0.49, 0.37,0.24,-0.03
-8.96,-2.22,0.39, 0.36,0.22,-0.01
-8.97,-2.10,0.31, 0.37,0.17,0.00
-8.96,-1.93,0.30, 0.38,0.10,0.01
-8.88,-1.85,0.25, 0.38,0.04,0.02
-8.86,-1.94,0.31, 0.36,0.02,0.02
-8.95,-2.07,0.44, 0.36,0.04,0.03
-9.04,-2.31,0.64, 0.39,0.06,0.03
-9.06,-2.44,0.70, 0.44,0.09,0.03
-9.00,-2.41,0.66, 0.49,0.13,0.01
-8.91,-2.20,0.55, 0.51,0.15,-0.03
-8.80,-1.93,0.53, 0.51,0.13,-0.07
-8.77,-1.92,0.60, 0.50,0.08,-0.09
-8.78,-2.14,0.64, 0.47,0.04,-0.11
-8.85,-2.29,0.66, 0.45,0.06,-0.10
-8.90,-2.26,0.65, 0.43,0.09,-0.09
-8.91,-2.05,0.57, 0.41,0.12,-0.07
-8.87,-1.81,0.56, 0.36,0.11,-0.06
-8.88,-1.71,0.54, 0.30,0.08,-0.05
-8.89,-1.82,0.56, 0.22,0.04,-0.03
-8.93,-2.04,0.51, 0.16,0.05,-0.01
-9.02,-2.14,0.44, 0.14,0.09,-0.00
-9.10,-2.12,0.32, 0.14,0.12,-0.01
-9.16,-1.98,0.28, 0.13,0.11,-0.01
-9.13,-1.82,0.24, 0.13,0.07,-0.02
-9.01,-1.77,0.32, 0.12,0.02,-0.03
-8.94,-1.80,0.46, 0.12,-0.03,-0.04
-8.88,-1.96,0.52, 0.10,-0.04,-0.05
-8.90,-2.17,0.48, 0.10,0.00,-0.06
-8.93,-2.26,0.47, 0.11,0.08,-0.07
-9.04,-2.19,0.47, 0.12,0.13,-0.08
-9.07,-2.07,0.44, 0.15,0.14,-0.08
-9.02,-1.96,0.40, 0.17,0.13,-0.08
-8.93,-1.90,0.37, 0.18,0.13,-0.07
-8.85,-1.95,0.35, 0.17,0.14,-0.06
-8.86,-2.07,0.32, 0.17,0.15,-0.05
-8.88,-2.16,0.28, 0.17,0.16,-0.05
-8.95,-2.10,0.27, 0.18,0.16,-0.05
-8.96,-2.04,0.29, 0.18,0.13,-0.04
-8.94,-2.07,0.40, 0.17,0.09,-0.04
-8.93,-2.11,0.51, 0.15,0.07,-0.04
-8.92,-2.12,0.58, 0.15,0.08,-0.03
-8.95,-2.11,0.54, 0.16,0.12,-0.02
-9.01,-2.07,0.44, 0.17,0.17,-0.01
-8.99,-2.04,0.31, 0.18,0.19,0.00
-8.92,-2.00,0.20, 0.18,0.18,0.01
-8.90,-1.97,0.27, 0.17,0.11,0.01
-8.90,-1.98,0.37, 0.17,0.04,0.01
-8.93,-2.01,0.44, 0.19,-0.01,0.02
-8.85,-2.00,0.45, 0.22,0.00,0.04
-8.77,-1.97,0.34, 0.23,0.06,0.06
-8.77,-1.93,0.28, 0.23,0.11,0.08
-8.76,-1.95,0.21, 0.23,0.10,0.09
-8.78,-1.98,0.23, 0.24,0.06,0.11
-8.75,-2.00,0.27, 0.27,0.01,0.13
-8.63,-2.07,0.20, 0.33,-0.01,0.14
-8.58,-1.97,0.14, 0.39,-0.01,0.13
-8.50,-1.85,0.10, 0.44,-0.02,0.10
-8.55,-1.68,0.09, 0.46,-0.06,0.05
-8.85,-1.54,0.35, 0.49,-0.15,-0.01
-9.01,-1.56,0.64, 0.52,-0.23,-0.04
-9.05,-1.62,0.94, 0.57,-0.27,-0.05
-9.08,-1.78,1.07, 0.62,-0.22,-0.03
-9.14,-1.91,1.11, 0.65,-0.12,-0.01
-9.07,-1.91,1.00, 0.67,0.00,0.02
-9.00,-1.85,0.74, 0.66,0.12,0.04
-8.89,-1.81,0.55, 0.62,0.17,0.06
-8.86,-1.86,0.39, 0.57,0.16,0.07
-8.85,-1.93,0.32, 0.52,0.10,0.07
-8.95,-1.91,0.38, 0.50,0.03,0.08
-8.95,-1.78,0.31, 0.49,-0.03,0.09
-8.85,-1.72,0.26, 0.47,-0.05,0.08
-8.87,-1.82,0.28, 0.45,-0.06,0.06
-8.99,-1.99,0.41, 0.44,-0.10,0.04
-9.13,-2.10,0.57, 0.44,-0.16,0.02
-9.12,-2.07,0.68, 0.47,-0.19,0.00
-8.98,-1.94,0.72, 0.49,-0.18,-0.01
-8.87,-1.79,0.70, 0.51,-0.11,-0.01
-8.87,-1.65,0.73, 0.53,-0.04,-0.01
-8.87,-1.68,0.72, 0.54,0.03,-0.01
-8.99,-1.79,0.79, 0.56,0.02,-0.02
-9.04,-1.81,0.78, 0.55,-0.03,-0.01
-9.00,-1.71,0.79, 0.51,-0.08,0.02
-8.89,-1.56,0.72, 0.44,-0.07,0.04
-8.78,-1.47,0.63, 0.36,-0.02,0.05
-8.77,-1.43,0.58, 0.27,0.05,0.06
-8.82,-1.44,0.48, 0.20,0.10,0.07
-8.92,-1.37,0.41, 0.14,0.10,0.07
-9.01,-1.34,0.44, 0.08,0.04,0.07
-9.01,-1.42,0.45, 0.02,-0.03,0.05
-8.99,-1.55,0.58, -0.03,-0.08,0.03
-9.01,-1.63,0.70, -0.07,-0.09,0.01
-9.04,-1.69,0.78, -0.09,-0.05,-0.01
-9.03,-1.71,0.78, -0.09,0.00,-0.03
-9.01,-1.72,0.75, -0.10,0.05,-0.04
-9.07,-1.73,0.76, -0.11,0.07,-0.05
-9.08,-1.75,0.76, -0.13,0.04,-0.07
-9.02,-1.70,0.79, -0.15,0.00,-0.08
-8.96,-1.68,0.86, -0.16,-0.02,-0.08
-8.95,-1.65,0.98, -0.17,-0.03,-0.09
-8.99,-1.62,1.05, -0.17,-0.02,-0.08
-9.06,-1.58,1.12, -0.17,0.02,-0.06
-9.08,-1.54,1.19, -0.16,0.05,-0.05
-9.06,-1.53,1.20, -0.16,0.07,-0.03
-9.00,-1.56,1.19, -0.17,0.08,-0.02
-8.97,-1.60,1.17, -0.18,0.09,-0.02
-8.97,-1.72,1.13, -0.19,0.11,-0.01
-8.97,-1.73,1.10, -0.19,0.13,-0.01
-8.95,-1.69,1.09, -0.19,0.12,-0.01
-8.94,-1.53,1.11, -0.19,0.09,-0.01
-8.90,-1.48,1.12, -0.19,0.06,-0.01
-8.91,-1.50,1.17, -0.19,0.03,-0.02
-8.91,-1.55,1.18, -0.19,0.02,-0.02
-8.94,-1.64,1.21, -0.19,0.02,-0.02
-8.97,-1.67,1.25, -0.18,0.03,-0.02
-8.99,-1.66,1.22, -0.18,0.04,-0.01
-8.99,-1.62,1.21, -0.18,0.05,0.01
-9.05,-1.59,1.19, -0.18,0.07,0.02
-9.06,-1.59,1.15, -0.18,0.07,0.03
-9.00,-1.53,1.05, -0.18,0.07,0.03
-8.99,-1.50,0.93, -0.19,0.08,0.03
-8.96,-1.55,0.84, -0.21,0.08,0.03
-8.96,-1.62,0.72, -0.24,0.10,0.03
-8.96,-1.68,0.61, -0.26,0.11,0.03
-9.01,-1.69,0.51, -0.28,0.11,0.02
-8.94,-1.70,0.37, -0.30,0.09,0.01
-8.95,-1.70,0.33, -0.33,0.06,-0.00
-8.96,-1.67,0.31, -0.36,0.03,-0.01
-8.93,-1.72,0.27, -0.40,0.01,-0.01
-8.97,-1.80,0.29, -0.43,0.04,-0.00
-8.97,-1.81,0.21, -0.45,0.09,-0.00
-9.00,-1.77,0.13, -0.48,0.12,0.00
-9.05,-1.68,0.05, -0.50,0.12,0.01
-9.09,-1.63,-0.01, -0.51,0.10,0.02
-9.10,-1.73,-0.06, -0.52,0.07,0.02
-9.09,-1.82,-0.12, -0.52,0.05,0.02
-9.12,-1.93,-0.12, -0.53,0.03,0.01
-9.20,-1.96,-0.13, -0.53,0.02,0.01
-9.28,-1.98,-0.10, -0.53,0.01,0.01
-9.30,-1.99,-0.14, -0.53,0.01,0.01
-9.20,-1.99,-0.16, -0.53,0.03,0.01
-9.11,-1.93,-0.26, -0.54,0.06,-0.00
-9.04,-1.85,-0.40, -0.55,0.10,-0.02
-9.04,-1.85,-0.49, -0.56,0.11,-0.04
-9.05,-1.88,-0.50, -0.57,0.09,-0.05
-9.14,-1.98,-0.51, -0.58,0.03,-0.06
-9.18,-2.06,-0.46, -0.58,-0.02,-0.06
-9.14,-2.05,-0.39, -0.58,-0.06,-0.05
-9.09,-2.01,-0.32, -0.59,-0.08,-0.04
-9.04,-1.97,-0.27, -0.60,-0.07,-0.02
-9.09,-1.92,-0.12, -0.61,-0.07,0.01
-9.06,-1.93,-0.07, -0.62,-0.08,0.05
-9.00,-1.92,-0.02, -0.65,-0.09,0.08
-9.02,-1.88,0.04, -0.67,-0.10,0.11
-8.99,-1.86,0.09, -0.70,-0.10,0.14
-8.97,-1.87,0.14, -0.72,-0.10,0.16
-8.98,-1.87,0.17, -0.74,-0.08,0.17
-8.93,-1.89,0.17, -0.77,-0.05,0.18
-8.94,-1.81,0.18, -0.80,-0.03,0.18
-8.92,-1.73,0.22, -0.83,-0.03,0.18
-8.92,-1.64,0.22, -0.86,-0.03,0.17
-8.87,-1.60,0.20, -0.88,-0.03,0.16
-8.86,-1.56,0.15, -0.89,-0.02,0.14
-8.85,-1.55,0.15, -0.90,-0.01,0.12
-8.91,-1.56,0.18, -0.89,-0.03,0.10
-8.87,-1.56,0.22, -0.88,-0.07,0.08
-8.83,-1.53,0.19, -0.88,-0.10,0.05
-8.76,-1.50,0.20, -0.89,-0.11,0.03
-8.74,-1.53,0.11, -0.91,-0.09,0.00
-8.79,-1.65,0.07, -0.92,-0.06,-0.02
-8.89,-1.73,0.14, -0.93,-0.05,-0.03
-9.00,-1.72,0.19, -0.92,-0.09,-0.03
-8.95,-1.72,0.30, -0.90,-0.15,-0.03
-9.00,-1.70,0.44, -0.88,-0.20,-0.02
-9.02,-1.71,0.52, -0.85,-0.24,0.00
-8.98,-1.77,0.57, -0.83,-0.23,0.03
-8.95,-1.84,0.58, -0.81,-0.19,0.05
-9.00,-1.90,0.53, -0.79,-0.14,0.07
-9.01,-1.87,0.47, -0.78,-0.10,0.09
-8.94,-1.82,0.39, -0.75,-0.10,0.11
-8.97,-1.76,0.42, -0.73,-0.13,0.13
-9.03,-1.61,0.53, -0.71,-0.21,0.15
-8.99,-1.48,0.69, -0.68,-0.29,0.18
-8.88,-1.36,0.78, -0.67,-0.31,0.20
-8.81,-1.30,0.85, -0.66,-0.25,0.23
-8.79,-1.30,0.86, -0.65,-0.16,0.24
-8.81,-1.33,0.72, -0.64,-0.05,0.25
-8.82,-1.41,0.55, -0.64,0.03,0.25
-8.86,-1.43,0.38, -0.63,0.07,0.23
-8.89,-1.39,0.28, -0.63,0.05,0.20
-8.84,-1.34,0.26, -0.64,-0.00,0.16
-8.78,-1.20,0.28, -0.65,-0.06,0.12
-8.69,-1.13,0.36, -0.67,-0.10,0.09
-8.68,-1.03,0.39, -0.69,-0.10,0.05
-8.69,-1.03,0.38, -0.71,-0.08,0.04
-8.72,-1.12,0.39, -0.73,-0.06,0.02
-8.82,-1.20,0.44, -0.73,-0.05,0.01
-8.85,-1.22,0.43, -0.73,-0.06,-0.00
-8.86,-1.24,0.41, -0.72,-0.07,-0.01
-8.88,-1.31,0.47, -0.72,-0.08,-0.01
-8.88,-1.40,0.50, -0.72,-0.08,-0.01
-8.95,-1.43,0.55, -0.73,-0.07,-0.00
-8.92,-1.42,0.60, -0.72,-0.04,0.01
-8.85,-1.33,0.66, -0.71,-0.02,0.02
-8.80,-1.30,0.69, -0.70,-0.02,0.04
-8.71,-1.25,0.72, -0.71,-0.04,0.04
-8.68,-1.22,0.73, -0.72,-0.07,0.05
-8.69,-1.21,0.77, -0.72,-0.10,0.06
-8.72,-1.23,0.84, -0.71,-0.11,0.07
-8.77,-1.21,0.84, -0.70,-0.10,0.07
-8.82,-1.19,0.81, -0.69,-0.06,0.07
-8.82,-1.16,0.79, -0.68,-0.03,0.07
-8.79,-1.07,0.74, -0.69,-0.00,0.06
-8.85,-0.97,0.75, -0.69,-0.00,0.06
-8.87,-0.90,0.77, -0.69,-0.01,0.06
-8.88,-0.87,0.71, -0.66,-0.02,0.05
-8.91,-0.90,0.75, -0.62,-0.02,0.03
-8.91,-0.91,0.75, -0.57,-0.02,-0.00
-8.84,-0.90,0.80, -0.52,-0.03,-0.04
-8.75,-0.95,0.84, -0.48,-0.05,-0.08
-8.77,-0.99,0.85, -0.45,-0.08,-0.12
-8.81,-1.04,0.85, -0.44,-0.13,-0.16
-8.86,-1.09,0.98, -0.44,-0.18,-0.19
-8.91,-1.16,1.13, -0.45,-0.23,-0.21
-8.94,-1.21,1.28, -0.45,-0.25,-0.21
-8.90,-1.19,1.38, -0.45,-0.23,-0.21
-8.89,-1.14,1.45, -0.43,-0.18,-0.21
-8.85,-1.09,1.44, -0.42,-0.14,-0.21
-8.77,-1.13,1.35, -0.42,-0.10,-0.20
-8.77,-1.22,1.22, -0.42,-0.07,-0.20
-8.75,-1.32,1.00, -0.44,-0.06,-0.20
-8.75,-1.33,0.98, -0.47,-0.07,-0.21
-8.87,-1.35,1.25, -0.48,-0.14,-0.21
-8.98,-1.32,1.60, -0.46,-0.24,-0.18
-9.03,-1.32,1.89, -0.40,-0.31,-0.14
-9.05,-1.43,2.03, -0.31,-0.31,-0.09
-9.09,-1.56,1.98, -0.23,-0.24,-0.04
-9.06,-1.64,1.86, -0.17,-0.13,0.00
-8.94,-1.72,1.61, -0.13,-0.03,0.03
-8.87,-1.69,1.45, -0.13,0.03,0.03
-8.75,-1.58,1.36, -0.15,0.04,0.02
-8.79,-1.40,1.47, -0.18,-0.03,-0.00
-8.87,-1.20,1.60, -0.20,-0.16,-0.01
-8.93,-1.14,1.78, -0.20,-0.28,-0.01
-8.99,-1.19,1.93, -0.18,-0.34,0.01
-9.06,-1.30,2.04, -0.16,-0.34,0.03
-9.08,-1.40,2.11, -0.13,-0.30,0.05
-9.10,-1.43,2.08, -0.13,-0.23,0.08
-9.01,-1.41,1.98, -0.13,-0.16,0.09
-8.88,-1.37,1.86, -0.15,-0.08,0.08
-8.85,-1.36,1.89, -0.17,-0.05,0.05
-8.99,-1.42,1.95, -0.17,-0.07,0.02
-9.15,-1.49,2.02, -0.15,-0.13,-0.01
-9.27,-1.47,2.14, -0.11,-0.18,-0.02
-9.22,-1.38,2.19, -0.07,-0.19,-0.03
-9.01,-1.31,2.18, -0.04,-0.16,-0.04
-8.87,-1.37,2.07, -0.02,-0.08,-0.05
-8.88,-1.44,1.93, -0.00,0.00,-0.07
-8.98,-1.44,1.80, 0.02,0.04,-0.09
-9.07,-1.40,1.73, 0.03,0.03,-0.09
-9.11,-1.32,1.73, 0.02,-0.04,-0.09
-9.09,-1.33,1.77, 0.00,-0.12,-0.08
-9.04,-1.45,1.79, -0.02,-0.17,-0.07
-9.00,-1.50,1.79, -0.04,-0.17,-0.06
-8.88,-1.54,1.76, -0.06,-0.15,-0.04
-8.81,-1.58,1.71, -0.09,-0.12,-0.02
-8.95,-1.57,1.77, -0.12,-0.14,-0.00
-9.11,-1.54,1.96, -0.14,-0.22,0.03
-9.09,-1.44,2.05, -0.17,-0.32,0.07
-8.95,-1.32,2.12, -0.20,-0.37,0.10
-8.83,-1.32,2.14, -0.23,-0.35,0.13
-8.81,-1.36,2.11, -0.24,-0.26,0.13
-8.82,-1.44,2.00, -0.24,-0.14,0.13
-8.88,-1.49,1.94, -0.23,-0.05,0.11
-8.99,-1.54,1.95, -0.20,-0.04,0.10
-9.04,-1.48,2.03, -0.16,-0.09,0.09
-9.01,-1.38,2.08, -0.13,-0.17,0.10
-8.93,-1.26,2.11, -0.10,-0.22,0.09
-8.88,-1.28,2.15, -0.07,-0.21,0.08
-8.94,-1.30,2.23, -0.05,-0.18,0.08
-9.00,-1.25,2.26, -0.02,-0.14,0.08
-8.98,-1.21,2.23, -0.00,-0.08,0.08
-8.87,-1.09,2.20, 0.01,-0.03,0.06
-8.86,-0.93,2.14, 0.01,0.00,0.05
-8.84,-0.85,2.07, 0.00,0.02,0.03
-8.85,-0.93,2.06, -0.03,0.01,0.02
-8.97,-1.04,2.09, -0.05,-0.02,0.01
-9.05,-1.08,2.14, -0.06,-0.05,0.02
-9.06,-1.08,2.14, -0.05,-0.05,0.03
-9.00,-1.06,2.06, -0.03,-0.01,0.04
-8.87,-0.94,2.09, -0.03,0.04,0.04
-8.79,-0.82,2.13, -0.05,0.07,0.03
-8.84,-0.81,2.17, -0.07,0.06,0.01
-8.85,-0.88,2.13, -0.09,0.03,-0.01
-8.90,-0.99,2.09, -0.09,0.03,-0.03
-8.91,-1.03,2.05, -0.08,0.04,-0.05
-8.88,-1.02,2.01, -0.07,0.05,-0.07
-8.88,-1.02,1.95, -0.07,0.06,-0.09
-8.85,-0.98,1.95, -0.08,0.04,-0.10
-8.88,-0.95,1.93, -0.11,0.02,-0.11
-8.88,-0.94,1.92, -0.14,-0.00,-0.11
-8.92,-1.07,1.92, -0.16,-0.01,-0.11
-9.04,-1.21,1.95, -0.17,-0.01,-0.11
-9.09,-1.31,1.94, -0.16,0.00,-0.10
-9.07,-1.28,1.96, -0.13,0.01,-0.07
-9.02,-1.21,1.97, -0.11,0.01,-0.05
-8.92,-1.15,1.95, -0.10,0.00,-0.03
-8.85,-1.15,1.92, -0.09,0.02,-0.01
-8.84,-1.18,1.88, -0.08,0.05,0.00
-8.88,-1.31,1.84, -0.07,0.08,0.02
-8.98,-1.44,1.79, -0.05,0.10,0.03
-9.05,-1.48,1.76, -0.03,0.09,0.05
-9.04,-1.43,1.79, -0.01,0.07,0.06
-8.94,-1.26,1.75, -0.00,0.05,0.06
-8.87,-1.13,1.76, -0.01,0.02,0.05
-8.91,-1.18,1.85, -0.02,0.01,0.04
-8.96,-1.30,1.88, -0.01,0.01,0.03
-9.08,-1.36,1.93, 0.01,0.03,0.03
-9.11,-1.35,1.94, 0.04,0.02,0.04
-9.00,-1.23,1.96, 0.05,0.01,0.04
-8.88,-1.06,2.03, 0.04,-0.02,0.03
-8.86,-0.97,2.13, 0.01,-0.04,0.03
-8.82,-0.96,2.28, -0.02,-0.05,0.02
-8.85,-1.01,2.38, -0.04,-0.04,0.02
-8.85,-1.09,2.47, -0.05,-0.00,0.03
-8.84,-1.11,2.54, -0.06,0.04,0.03
-8.83,-1.05,2.55, -0.08,0.08,0.03
-8.85,-1.03,2.62, -0.10,0.08,0.04
-8.84,-0.97,2.67, -0.13,0.08,0.04
-8.84,-1.00,2.74, -0.16,0.06,0.06
-8.83,-1.02,2.85, -0.18,0.03,0.07
-8.80,-0.90,2.98, -0.20,0.00,0.09
-8.65,-0.84,3.02, -0.22,0.00,0.10
-8.61,-0.82,3.00, -0.24,0.04,0.10
-8.66,-0.83,3.02, -0.24,0.08,0.09
-8.67,-0.76,2.98, -0.25,0.10,0.09
-8.67,-0.70,2.98, -0.27,0.09,0.09
-8.62,-0.77,3.00, -0.31,0.04,0.08
-8.57,-0.82,2.98, -0.37,-0.01,0.07
-8.65,-0.93,3.05, -0.41,-0.05,0.06
-8.76,-1.13,3.17, -0.43,-0.06,0.06
-8.84,-1.31,3.33, -0.40,-0.05,0.05
-8.89,-1.39,3.48, -0.34,-0.05,0.04
-8.86,-1.34,3.48, -0.27,-0.05,0.05
-8.69,-1.19,3.33, -0.22,-0.01,0.04
-8.54,-1.10,3.15, -0.20,0.08,0.03
-8.63,-1.03,3.08, -0.18,0.17,-0.00
-8.71,-0.96,3.06, -0.14,0.23,-0.02
-8.79,-0.92,3.02, -0.07,0.24,-0.02
-8.85,-0.97,2.89, 0.01,0.22,-0.02
-8.90,-1.05,2.79, 0.08,0.19,-0.01
-8.88,-1.09,2.73, 0.13,0.14,0.00
-8.88,-1.06,2.61, 0.18,0.13,0.01
-8.85,-1.00,2.54, 0.23,0.16,0.02
-8.80,-1.02,2.48, 0.26,0.19,0.02
-8.86,-1.09,2.47, 0.30,0.21,0.02
-8.96,-1.25,2.53, 0.35,0.19,0.00
-8.98,-1.35,2.53, 0.38,0.13,-0.01
-8.86,-1.29,2.36, 0.39,0.08,-0.04
-8.71,-1.18,2.19, 0.37,0.09,-0.06
-8.71,-1.14,2.07, 0.34,0.14,-0.09
-8.88,-1.12,2.03, 0.32,0.19,-0.11
-8.99,-1.20,1.99, 0.34,0.21,-0.11
-9.04,-1.36,1.97, 0.37,0.20,-0.12
-9.07,-1.45,1.97, 0.41,0.16,-0.13
-9.09,-1.51,1.97, 0.46,0.11,-0.13
-9.02,-1.45,1.96, 0.49,0.07,-0.12
-8.93,-1.34,1.94, 0.49,0.05,-0.11
-8.88,-1.30,1.89, 0.49,0.10,-0.10
-8.91,-1.39,1.80, 0.48,0.18,-0.09
-8.99,-1.57,1.64, 0.48,0.26,-0.08
-9.11,-1.70,1.50, 0.49,0.29,-0.07
-9.17,-1.77,1.39, 0.52,0.26,-0.04
-9.17,-1.77,1.42, 0.54,0.19,-0.01
-9.08,-1.74,1.38, 0.55,0.10,0.02
-8.92,-1.64,1.28, 0.55,0.06,0.05
-8.83,-1.64,1.15, 0.53,0.07,0.07
-8.83,-1.69,1.09, 0.52,0.10,0.08
-8.98,-1.62,1.05, 0.53,0.13,0.08
-9.05,-1.62,1.08, 0.57,0.12,0.08
-9.11,-1.60,1.03, 0.63,0.10,0.08
-9.04,-1.65,0.89, 0.68,0.10,0.08
-8.95,-1.77,0.73, 0.70,0.13,0.08
-8.97,-1.74,0.61, 0.73,0.17,0.07
-9.04,-1.68,0.52, 0.78,0.18,0.07
-9.09,-1.54,0.49, 0.83,0.16,0.06
-9.10,-1.35,0.44, 0.88,0.10,0.07
-9.09,-1.29,0.44, 0.91,0.05,0.08
-9.12,-1.32,0.47, 0.92,0.03,0.09
-9.01,-1.37,0.46, 0.92,0.03,0.10
-8.93,-1.44,0.43, 0.92,0.08,0.10
-9.00,-1.44,0.40, 0.93,0.14,0.09
-9.08,-1.41,0.36, 0.97,0.19,0.07
-9.02,-1.29,0.19, 1.01,0.24,0.06
-8.92,-1.25,-0.08, 1.03,0.30,0.05
-8.94,-1.30,-0.23, 1.03,0.32,0.03
-8.98,-1.28,-0.27, 1.03,0.28,0.02
-9.01,-1.30,-0.14, 1.04,0.19,0.02
-9.13,-1.30,0.03, 1.08,0.07,0.01
-9.07,-1.17,0.07, 1.14,-0.00,0.00
-8.93,-1.05,0.07, 1.18,0.01,-0.00
-8.87,-0.94,0.06, 1.18,0.06,-0.01
-8.87,-0.95,0.05, 1.14,0.11,-0.01
-8.94,-0.99,-0.02, 1.09,0.14,-0.01
-8.95,-1.05,-0.05, 1.04,0.15,-0.02
-8.90,-0.99,-0.04, 0.99,0.15,-0.03
-8.84,-0.90,-0.08, 0.94,0.14,-0.04
-8.82,-0.79,-0.19, 0.90,0.15,-0.06
-8.78,-0.74,-0.29, 0.87,0.16,-0.07
-8.69,-0.67,-0.36, 0.85,0.19,-0.09
-8.71,-0.50,-0.37, 0.85,0.19,-0.10
-8.78,-0.41,-0.34, 0.86,0.17,-0.09
-8.86,-0.47,-0.42, 0.86,0.14,-0.09
-8.95,-0.59,-0.45, 0.85,0.11,-0.08
-9.01,-0.76,-0.46, 0.82,0.08,-0.07
-9.17,-0.89,-0.39, 0.79,0.04,-0.06
-9.23,-1.03,-0.36, 0.75,-0.01,-0.04
-9.15,-1.16,-0.30, 0.71,-0.02,-0.01
-9.11,-1.33,-0.26, 0.66,-0.00,0.01
-9.10,-1.39,-0.25, 0.62,0.05,0.03
-9.16,-1.29,-0.17, 0.59,0.09,0.03
-9.23,-1.21,-0.11, 0.60,0.12,0.03
-9.28,-1.09,-0.14, 0.62,0.11,0.02
-9.21,-1.01,-0.22, 0.62,0.09,0.01
-9.12,-0.99,-0.34, 0.61,0.07,0.01
-9.13,-1.08,-0.42, 0.59,0.05,-0.01
-9.17,-1.33,-0.51, 0.58,0.06,-0.02
-9.19,-1.53,-0.56, 0.57,0.09,-0.03
-9.25,-1.55,-0.52, 0.59,0.13,-0.04
-9.29,-1.31,-0.50, 0.62,0.15,-0.06
-9.24,-1.10,-0.47, 0.64,0.12,-0.07
-9.22,-0.96,-0.53, 0.63,0.08,-0.09
-9.15,-0.91,-0.56, 0.59,0.03,-0.10
-9.11,-0.94,-0.54, 0.53,0.00,-0.11
-9.09,-1.07,-0.53, 0.46,-0.00,-0.12
-9.13,-1.12,-0.52, 0.41,0.01,-0.14
-9.25,-1.07,-0.40, 0.36,0.03,-0.15
-9.38,-1.02,-0.30, 0.33,0.03,-0.15
-9.35,-1.02,-0.26, 0.31,0.02,-0.14
-9.30,-0.96,-0.27, 0.27,-0.00,-0.13
-9.18,-0.91,-0.22, 0.21,-0.02,-0.13
-9.11,-0.97,-0.21, 0.15,-0.02,-0.12
-9.06,-1.00,-0.23, 0.09,-0.00,-0.12
-9.02,-1.06,-0.30, 0.04,0.04,-0.11
-9.03,-1.14,-0.33, 0.00,0.10,-0.10
-9.16,-1.24,-0.36, -0.03,0.13,-0.10
-9.25,-1.25,-0.36, -0.05,0.11,-0.09
-9.33,-1.22,-0.30, -0.07,0.04,-0.08
-9.32,-1.15,-0.24, -0.08,-0.04,-0.06
-9.24,-1.13,-0.19, -0.11,-0.09,-0.04
-9.15,-1.15,-0.19, -0.14,-0.09,-0.01
-9.14,-1.28,-0.24, -0.17,-0.04,0.01
-9.18,-1.37,-0.28, -0.19,0.04,0.02
-9.15,-1.37,-0.34, -0.22,0.11,0.03
-9.11,-1.36,-0.44, -0.25,0.14,0.03
-9.06,-1.32,-0.56, -0.29,0.13,0.02
-9.06,-1.34,-0.60, -0.33,0.08,-0.00
-9.11,-1.34,-0.56, -0.38,0.00,-0.01
-9.10,-1.47,-0.58, -0.41,-0.06,-0.00
-9.04,-1.54,-0.56, -0.42,-0.08,0.01
-9.03,-1.47,-0.50, -0.43,-0.06,0.04
-9.04,-1.41,-0.48, -0.44,-0.04,0.07
-9.05,-1.37,-0.46, -0.45,-0.02,0.12
-9.07,-1.45,-0.45, -0.47,-0.03,0.15
-9.03,-1.50,-0.54, -0.49,-0.03,0.18
-8.98,-1.43,-0.65, -0.53,-0.00,0.20
-8.94,-1.40,-0.77, -0.59,0.04,0.22
-9.03,-1.28,-0.89, -0.65,0.08,0.24
-9.15,-1.21,-0.96, -0.73,0.08,0.25
-9.17,-1.30,-0.98, -0.81,0.05,0.25
-9.23,-1.34,-0.91, -0.88,-0.01,0.22
-9.18,-1.43,-0.82, -0.94,-0.09,0.18
-9.14,-1.41,-0.69, -0.98,-0.17,0.13
-9.08,-1.36,-0.48, -1.00,-0.23,0.08
-9.04,-1.36,-0.31, -1.00,-0.26,0.03
-9.07,-1.27,-0.12, -0.98,-0.23,-0.01
-9.05,-1.15,0.02, -0.94,-0.17,-0.03
-8.97,-1.15,-0.03, -0.90,-0.08,-0.04
-8.86,-1.23,-0.12, -0.86,0.02,-0.07
-8.77,-1.31,-0.15, -0.80,0.09,-0.10
-8.68,-1.36,-0.24, -0.75,0.10,-0.12
-8.69,-1.34,-0.29, -0.68,0.08,-0.17
-8.84,-1.35,-0.26, -0.60,0.03,-0.20
-9.03,-1.38,-0.10, -0.50,-0.06,-0.22
-9.03,-1.41,0.04, -0.43,-0.18,-0.23
-8.94,-1.43,0.19, -0.38,-0.28,-0.23
-8.83,-1.47,0.31, -0.35,-0.32,-0.22
-8.68,-1.43,0.35, -0.34,-0.29,-0.21
-8.54,-1.30,0.46, -0.35,-0.20,-0.19
-8.50,-1.14,0.62, -0.38,-0.09,-0.18
-8.58,-1.08,0.74, -0.43,-0.03,-0.17
-8.75,-1.10,0.80, -0.49,-0.02,-0.15
-8.76,-1.10,0.88, -0.54,-0.03,-0.12
-8.71,-1.09,0.95, -0.59,-0.03,-0.09
-8.64,-1.13,0.96, -0.64,-0.02,-0.08
-8.62,-1.12,0.96, -0.68,0.00,-0.08
-8.62,-1.10,1.01, -0.70,0.02,-0.08
-8.66,-1.13,1.09, -0.71,0.03,-0.08
-8.83,-1.16,1.27, -0.69,0.03,-0.08
-9.03,-1.13,1.50, -0.64,-0.00,-0.07
-9.13,-1.09,1.73, -0.58,-0.07,-0.05
-9.06,-1.08,1.90, -0.53,-0.15,-0.05
-8.96,-1.01,2.03, -0.48,-0.21,-0.06
-8.96,-0.87,2.25, -0.44,-0.23,-0.07
-8.99,-0.73,2.52, -0.41,-0.23,-0.08
-8.99,-0.63,2.64, -0.37,-0.23,-0.08
-9.00,-0.60,2.67, -0.32,-0.21,-0.08
-8.98,-0.53,2.72, -0.27,-0.18,-0.09
-8.98,-0.53,2.68, -0.23,-0.17,-0.12
-8.83,-0.64,2.75, -0.20,-0.14,-0.15
-8.93,-0.69,2.68, -0.19,-0.14,-0.15
-9.18,-0.60,2.71, -0.17,-0.11,-0.16
-9.46,-0.34,2.80, -0.12,-0.07,-0.18
-9.46,-0.18,2.90, -0.08,-0.05,-0.17
-9.51,0.06,3.10, -0.06,-0.08,-0.11
-9.34,0.20,3.20, -0.06,-0.12,-0.04
-9.10,0.06,3.24, -0.07,-0.11,0.01
-9.00,-0.18,3.17, -0.08,-0.04,0.02
-9.01,-0.54,3.03, -0.06,0.09,0.02
-9.15,-0.74,2.82, -0.04,0.22,0.02
-9.11,-0.69,2.53, 0.00,0.33,0.03
-9.06,-0.53,2.35, 0.02,0.38,0.05
-9.04,-0.28,2.18, 0.01,0.34,0.07
-8.95,-0.22,2.04, 0.01,0.22,0.08
-8.63,-0.29,1.77, 0.01,0.10,0.05
-8.45,-0.17,1.55, 0.02,-0.01,-0.02
-8.70,-0.15,1.58, 0.04,-0.13,-0.07
-9.04,-0.36,1.77, 0.06,-0.28,-0.09
-9.19,-0.66,1.92, 0.10,-0.37,-0.10
-9.20,-0.85,2.01, 0.15,-0.38,-0.11
-9.12,-0.89,2.16, 0.21,-0.30,-0.10
-9.02,-0.85,2.28, 0.28,-0.17,-0.08
-8.94,-0.88,2.30, 0.35,-0.02,-0.08
-8.97,-0.81,2.17, 0.42,0.14,-0.07
-9.03,-0.66,2.08, 0.47,0.29,-0.05
-9.01,-0.40,1.98, 0.49,0.38,-0.04
-9.03,-0.25,1.88, 0.48,0.42,-0.04
-9.04,-0.19,1.77, 0.47,0.44,-0.03
-9.13,-0.21,1.68, 0.49,0.46,-0.00
-9.18,-0.45,1.60, 0.56,0.48,0.05
-9.22,-0.77,1.50, 0.66,0.47,0.11
-9.30,-0.83,1.43, 0.77,0.42,0.15
-9.15,-0.84,1.42, 0.88,0.36,0.18
-9.03,-0.93,1.45, 1.00,0.29,0.18
-9.12,-1.00,1.57, 1.19,0.24,0.22
-9.53,-1.22,1.84, 1.44,0.18,0.29
-9.57,-1.55,1.80, 1.71,0.12,0.37
-9.04,-1.78,1.58, 1.92,0.10,0.38
-8.55,-1.62,1.38, 2.09,0.14,0.33
